x,y,z,m,softening,ax,ay,az,tree_0.25_x,tree_0.25_y,tree_0.25_z,tree_0.5_x,tree_0.5_y,tree_0.5_z,tree_0.75_x,tree_0.75_y,tree_0.75_z,tree_1_x,tree_1_y,tree_1_z
-1.449438777897068e+19,-1.0740718719712252e+19,2.6055099220733664e+16,9.942049353490255e+36,3.085677581491367e+17,3.9039301138452297e-10,3.8747835827172887e-10,7.49544829008172e-11,3.9055751619022174e-10,3.8740117999573595e-10,7.503257565318474e-11,3.8916011917378207e-10,3.8207197444356963e-10,7.451523553966248e-11,3.7804003358983957e-10,3.761920802768805e-10,7.985095627679973e-11,3.793109934574467e-10,3.7124451376608827e-10,7.491545774655319e-11
6.340875240903324e+18,-3.071312827719386e+18,6.986943617024828e+18,9.942049353490255e+36,3.085677581491367e+17,-1.7531812571188323e-10,-9.465107417787636e-12,-5.601438609746234e-10,-1.7513632119974927e-10,-9.34718182441955e-12,-5.594448828858126e-10,-1.7351107303560578e-10,-9.269288956185383e-12,-5.58333281104391e-10,-1.6739197935127454e-10,1.006719111539272e-12,-5.596562953247311e-10,-1.9976844224386747e-10,3.941677514690691e-11,-5.655695076796822e-10
8.912252758545345e+18,-2.999608645238981e+18,1.0359693839156201e+19,9.942049353490255e+36,3.085677581491367e+17,-3.291089099876257e-10,1.2239142720850773e-10,-4.08024976537969e-10,-3.2918925792516766e-10,1.222638552666166e-10,-4.079166927791381e-10,-3.298015328307385e-10,1.2274474503193013e-10,-4.0755085042167834e-10,-3.277417296584326e-10,1.3411938844120036e-10,-4.0381610566789667e-10,-2.905705621478715e-10,1.3918001662283186e-10,-4.2604250420112675e-10
-4.866346285067786e+19,-3.488588572252293e+18,1.3245977676570626e+19,9.942049353490255e+36,3.085677581491367e+17,3.1475210261211263e-10,1.2620023357962663e-11,-9.96215704238134e-11,3.1467841725473136e-10,1.2748701992253101e-11,-9.954693982539901e-11,3.1434765247811626e-10,1.2200721421278502e-11,-9.99027890741008e-11,3.1443302840024115e-10,1.0971321390338907e-11,-9.99901194922531e-11,3.1247698420630506e-10,9.248652651184952e-12,-9.774457865005423e-11
3.176706623730818e+19,3.741672575797891e+19,2.4690626752891482e+19,9.942049353490255e+36,3.085677581491367e+17,-1.7129712700199107e-10,-1.9578786929103953e-10,-1.3377842151606683e-10,-1.7129805199039142e-10,-1.9569856056563365e-10,-1.3372018207534433e-10,-1.7132286328080335e-10,-1.953275891280363e-10,-1.338396481815156e-10,-1.7249091234328967e-10,-1.9536061125689902e-10,-1.3380780425697635e-10,-1.7327119930521066e-10,-1.964579511020042e-10,-1.3288245098024342e-10
-6.971671992725606e+19,-5.434956788872091e+18,-2.5342412823369806e+19,9.942049353490255e+36,3.085677581491367e+17,1.7907070142806043e-10,5.981361079986044e-12,6.83232372812853e-11,1.7895947148371706e-10,5.990232288335502e-12,6.824496512579104e-11,1.7897012688019393e-10,5.84492267656855e-12,6.815277297198933e-11,1.7804564695418942e-10,5.945929688702986e-12,6.746078505533242e-11,1.7974155571477397e-10,5.092314387127582e-12,6.726726726932106e-11
8.020455069543329e+19,-9.664757564394695e+18,-7.96753828921259e+18,9.942049353490255e+36,3.085677581491367e+17,-1.4985473536804334e-10,-1.5713576170433912e-12,1.7121254935679333e-11,-1.4985093341674036e-10,-1.5175445740726336e-12,1.7104895395001615e-11,-1.496257156624327e-10,-1.474746616824072e-12,1.73338954783689e-11,-1.4887879651617066e-10,-1.9917098385477116e-12,1.7379186540815723e-11,-1.500714036635278e-10,-3.256254422198672e-12,1.6600352239776165e-11
-2.2250798657980408e+19,2.2974767192677184e+18,-2.417799933321409e+18,9.942049353490255e+36,3.085677581491367e+17,6.024456386706248e-10,-5.590433248519051e-11,8.353711814501888e-11,6.022529319952221e-10,-5.591529380583991e-11,8.38012488592204e-11,5.987992840489549e-10,-5.734151370291323e-11,8.442278502288616e-11,5.975442631942299e-10,-5.7000245226823706e-11,8.414310145882452e-11,5.835889535877608e-10,-4.3132209033780705e-11,7.288908772609677e-11
2.796104456435231e+18,3.018946028033271e+19,-5.649703059921405e+18,9.942049353490255e+36,3.085677581491367e+17,-1.7297434196270572e-10,-5.08853229298966e-10,7.236044222805698e-10,-1.7309412639424765e-10,-5.089667822877583e-10,7.234889109288277e-10,-1.741706016766423e-10,-5.082749123486007e-10,7.218420632758987e-10,-1.7176644429067688e-10,-5.051947462307292e-10,7.185857662627445e-10,-1.6356855546506915e-10,-5.117337499189464e-10,7.146416584530356e-10
3.6318802580551664e+19,3.807654945492826e+19,-5.698216756248545e+19,9.942049353490255e+36,3.085677581491367e+17,-8.715852480715784e-11,-8.092437981201033e-11,1.183244043454787e-10,-8.720842244232604e-11,-8.095462762481897e-11,1.1832240659156376e-10,-8.688844771326424e-11,-8.042381513747309e-11,1.1820399898351073e-10,-8.640321797793387e-11,-8.017717513827595e-11,1.1752523848926103e-10,-8.564603794299033e-11,-8.03833339182927e-11,1.2120533347364041e-10
2.944279579782511e+19,1.6945486684154864e+19,1.6914207336692085e+19,9.942049353490255e+36,3.085677581491367e+17,-3.359526941751362e-10,-1.8401847529182103e-10,-2.0756253705548445e-10,-3.359319996491284e-10,-1.8389675091440782e-10,-2.0756615981243493e-10,-3.3634709884402206e-10,-1.8381047176862398e-10,-2.083568426870634e-10,-3.366820212464503e-10,-1.8269449360827044e-10,-2.08751462358633e-10,-3.4191456711153204e-10,-1.8358876681719978e-10,-2.1387065464800513e-10
6.643477906148021e+19,8.870467641975878e+19,1.568148780797638e+19,9.942049353490255e+36,3.085677581491367e+17,-5.3628231287105434e-11,-7.124697638505624e-11,-8.885788702434224e-12,-5.363033372585043e-11,-7.124193244697783e-11,-8.891224295807789e-12,-5.3612920618573483e-11,-7.12101958530675e-11,-8.844893952600257e-12,-5.358920994835185e-11,-7.12230029963358e-11,-9.19409328045292e-12,-5.339170227242011e-11,-7.088562962438807e-11,-9.859292717517032e-12
3.6747965896074658e+19,-2.619737443871616e+19,3.3459238608371585e+19,9.942049353490255e+36,3.085677581491367e+17,-1.9058885935150425e-10,1.284295066128188e-10,-1.638184210067705e-10,-1.9069142919082308e-10,1.2849607065838812e-10,-1.6382292421826855e-10,-1.9004482607485639e-10,1.2830687913688222e-10,-1.6360578102600305e-10,-1.9023550564591385e-10,1.2724361403812367e-10,-1.6350359409197051e-10,-1.8971635230590143e-10,1.2564543703102048e-10,-1.6337213943864594e-10
2.526722208318794e+18,7.906223904106546e+18,2.167153567892922e+19,9.942049353490255e+36,3.085677581491367e+17,-1.0712542973397579e-10,-1.4478319715070023e-10,-5.690642798526367e-10,-1.0716086988071155e-10,-1.446644524670235e-10,-5.692417972294279e-10,-1.0501101178796628e-10,-1.4448677184124575e-10,-5.715265958990685e-10,-1.0451708550350666e-10,-1.425052631315622e-10,-5.683204899381289e-10,-1.1333578078857487e-10,-1.3704233834605948e-10,-5.580678614328864e-10
2.5219026522243076e+19,-1.687733724928161e+19,1.8906478859502403e+18,9.942049353490255e+36,3.085677581491367e+17,-3.9184700472919993e-10,2.444138805899618e-10,-3.8046924078195285e-11,-3.917667715380084e-10,2.443734847501783e-10,-3.803668009330615e-11,-3.9005295354466375e-10,2.4187636928402483e-10,-4.017137026036455e-11,-3.889254526268705e-10,2.42108114634323e-10,-3.506494122390771e-11,-3.8963554330236825e-10,2.3652753220382946e-10,-3.294090258889135e-11
5.574988639127784e+19,5.934126673415224e+18,1.9026106800747397e+19,9.942049353490255e+36,3.085677581491367e+17,-2.489636682256637e-10,-1.524180414745848e-11,-7.944905260333697e-11,-2.4887862646124593e-10,-1.5302342267890606e-11,-7.943734272372441e-11,-2.4897978803790965e-10,-1.4953191298397875e-11,-7.948215911656278e-11,-2.469407347501287e-10,-1.5510072674067833e-11,-7.999911000809256e-11,-2.458307037075713e-10,-1.5303625127524694e-11,-7.837600344367482e-11
-2.3004840141510907e+18,5.950418832682918e+17,-1.9794479411031347e+19,9.942049353490255e+36,3.085677581491367e+17,6.96586573870062e-11,-5.7102186893265335e-11,6.019718049587352e-10,6.966856744899305e-11,-5.7196681700529306e-11,6.02372051475456e-10,7.158131628126324e-11,-5.869051804911008e-11,6.034015244667822e-10,7.931480347867149e-11,-6.115722883802354e-11,6.110975996462727e-10,7.015906127093659e-11,-5.561974396636085e-11,6.183551239082432e-10
2.5937588980775395e+19,5.635442630199182e+18,5.199606740489913e+19,9.942049353490255e+36,3.085677581491367e+17,-1.1102257266885016e-10,-2.8333839869961308e-11,-2.621677875541533e-10,-1.1095773492298041e-10,-2.837120325537072e-11,-2.6218355631314657e-10,-1.1088960688617676e-10,-2.8225077177486778e-11,-2.619275741914231e-10,-1.096666447238933e-10,-2.814986566899779e-11,-2.6308863995603365e-10,-1.1231537863730992e-10,-2.5443671310978242e-11,-2.6330512915784004e-10
-3.187991805684189e+19,8.246653647994828e+19,-1.5785758189638367e+19,9.942049353490255e+36,3.085677581491367e+17,4.596408217128713e-11,-1.2883456945265903e-10,2.777636006294625e-11,4.599273826836083e-11,-1.2883122070554075e-10,2.773914575154285e-11,4.5865927112841944e-11,-1.2886111038172965e-10,2.7635410816554832e-11,4.5285022476102964e-11,-1.2825843184368758e-10,2.7293081080212468e-11,4.5026484101009666e-11,-1.2851431507321259e-10,2.641590755251319e-11
7.664041846869278e+18,1.4512231103282424e+19,2.364654382567139e+19,9.942049353490255e+36,3.085677581491367e+17,-1.2148695778293783e-10,-2.8724942434517554e-10,-3.95407594956777e-10,-1.214452247790419e-10,-2.872113350547662e-10,-3.9571417335561313e-10,-1.206259046289168e-10,-2.8620604242311293e-10,-3.950392630478276e-10,-1.2056626051186088e-10,-2.8478837194088225e-10,-3.895759523677059e-10,-1.3372394993848128e-10,-2.827438905948735e-10,-4.004406619377404e-10
-6.737166008073247e+18,1.4481177987860096e+18,-6.360433165248422e+18,9.942049353490255e+36,3.085677581491367e+17,1.019691323803816e-09,5.193006514411892e-10,9.422730802748597e-10,1.0199324951766701e-09,5.194580885770172e-10,9.423786786522146e-10,1.0217370361211742e-09,5.232690560272669e-10,9.394366871910164e-10,1.014768699200069e-09,5.214097733294174e-10,9.431164079238642e-10,1.009968827790215e-09,5.060832546280883e-10,9.32858001733408e-10
5.279486781895329e+18,1.4855246147027524e+19,-8.591021339411434e+18,9.942049353490255e+36,3.085677581491367e+17,-1.6885140640932936e-10,-3.9650146924526005e-10,4.2416873255332387e-10,-1.6904952462089465e-10,-3.9669654698289606e-10,4.23932529697567e-10,-1.6829854725210761e-10,-3.9806222414744206e-10,4.2599772416323436e-10,-1.7994434714642424e-10,-4.028127084538937e-10,4.3276391821765837e-10,-1.6571257478298938e-10,-3.9385629595626133e-10,4.4275286635340266e-10
1.0335266420925469e+19,-7.938329714614365e+18,-2.615649634627453e+18,9.942049353490255e+36,3.085677581491367e+17,-3.855557515698331e-10,2.595086257098807e-10,1.238438867169852e-11,-3.8586606278916773e-10,2.5966700658875116e-10,1.1901779752200176e-11,-3.8755831068351177e-10,2.6220904632224676e-10,1.1338860770089758e-11,-3.8722407576952565e-10,2.6643275670706364e-10,1.2225873493043274e-11,-3.868167191065087e-10,2.443778773600361e-10,2.295366192846455e-11
2.820129062680377e+18,7.145123677511739e+18,-5.917534391532908e+18,9.942049353490255e+36,3.085677581491367e+17,-2.2799448320672292e-10,-1.8348287171500423e-10,2.8660847522164515e-10,-2.2781854902040185e-10,-1.8398535810548675e-10,2.86558092170811e-10,-2.3019262949440331e-10,-1.836402746987212e-10,2.876911785018928e-10,-2.342327124233352e-10,-1.7906171722268436e-10,2.8328201676042016e-10,-2.2798253254069052e-10,-1.9326138611282555e-10,2.85319056267031e-10
-1.1106726774390637e+18,4.012835726791821e+18,1.5111909467578827e+19,9.942049353490255e+36,3.085677581491367e+17,-9.101129873597327e-11,6.028119804155221e-11,-5.139828681169591e-10,-9.072342634964827e-11,6.031778093058649e-11,-5.140838343362966e-10,-9.169524443648316e-11,6.065118107661213e-11,-5.171234299035549e-10,-9.065934320726259e-11,6.390351573875073e-11,-5.202705956055732e-10,-9.995495254258635e-11,6.127323096171924e-11,-5.094403963870692e-10
3.821065948335912e+19,-5.061309609460825e+19,8.65224036382316e+17,9.942049353490255e+36,3.085677581491367e+17,-1.365747867776188e-10,1.921344094473398e-10,-5.0571444502106935e-14,-1.3654058519100856e-10,1.9202859686263897e-10,-5.456538747252424e-14,-1.367201664830206e-10,1.9174627059540152e-10,-3.9160234582356555e-13,-1.3591757590278415e-10,1.911917179282096e-10,-2.868468459623433e-14,-1.363014393476126e-10,1.9273128672076269e-10,-4.639229129636325e-13
-1.1026481567064521e+18,2.1538142491372524e+19,8.579274771475808e+18,9.942049353490255e+36,3.085677581491367e+17,3.1750698671668657e-11,-5.262986059038518e-10,-2.8767196323132026e-10,3.154183277589374e-11,-5.262346163262892e-10,-2.874293126319547e-10,3.082053546592413e-11,-5.254084419322078e-10,-2.89394065920787e-10,2.8017525780003953e-11,-5.245109946225584e-10,-2.855466756709273e-10,3.047566883084709e-11,-5.164662942856317e-10,-2.7756264762625783e-10
-6.4625117006888575e+19,1.0086899421542444e+20,-2.242254113085944e+20,9.942049353490255e+36,3.085677581491367e+17,5.162192781724589e-12,-7.797107278902499e-12,1.728366326167045e-11,5.160108048782715e-12,-7.793451240204514e-12,1.7283069017092435e-11,5.173402826264073e-12,-7.806513117840137e-12,1.7300073915112527e-11,5.17325428790274e-12,-7.80430413250399e-12,1.729716487445944e-11,5.151540614223069e-12,-7.756085261138315e-12,1.7242292148106467e-11
-7.309050756310762e+17,-3.3315881741526348e+19,1.3328313100447506e+19,9.942049353490255e+36,3.085677581491367e+17,1.9077319775095408e-13,4.4888408472735817e-10,-1.9002197738033212e-10,2.872787763534257e-13,4.4886384939479545e-10,-1.898070458237676e-10,1.6283539489440816e-12,4.4899263250893646e-10,-1.9176010168075638e-10,-1.2692879742107614e-12,4.489001005395914e-10,-1.9282921994355892e-10,5.1656398413714925e-12,4.424690893771955e-10,-1.8508245621770222e-10
-4.639910777102438e+18,3.194466037524793e+18,9.716540034948655e+18,9.942049353490255e+36,3.085677581491367e+17,9.112836284152046e-11,2.422496313792865e-10,-3.952644186060125e-10,9.149597930946634e-11,2.4213523390663243e-10,-3.9522901433996555e-10,9.170828804309027e-11,2.420970286079342e-10,-3.9444986224795365e-10,7.633467785023155e-11,2.4515246659994173e-10,-3.900136792661606e-10,7.73235079472848e-11,2.393653221035909e-10,-3.744124412076727e-10
-9.215256406183436e+17,-1.7885696599816954e+19,-1.7094136240691177e+19,9.942049353490255e+36,3.085677581491367e+17,1.955749500185877e-11,4.508971768008561e-10,3.7330217153696464e-10,1.979315968893409e-11,4.5058191943506685e-10,3.732957491333939e-10,1.7452282779662212e-11,4.500356700921351e-10,3.7522163841339804e-10,1.3215713368274335e-11,4.4859165717984046e-10,3.676265183671041e-10,2.3764304145864522e-11,4.348307618734856e-10,3.4863202752319533e-10
-1.469147939561352e+19,-3.871727264945781e+19,-1.4130903769530114e+19,9.942049353490255e+36,3.085677581491367e+17,9.064400561427357e-11,3.349815994345798e-10,8.030757602980327e-11,9.071331065803753e-11,3.349251589110984e-10,8.028563546063937e-11,9.127803548508993e-11,3.3507639991259755e-10,8.102361735378562e-11,8.956832034739586e-11,3.3531323023880003e-10,7.840813043197786e-11,8.592627842387909e-11,3.3153910391273666e-10,7.842719487618972e-11
2.227817102466602e+19,3.0556221023339454e+19,-6.234303140368688e+19,9.942049353490255e+36,3.085677581491367e+17,-5.6850391228920124e-11,-7.926999418968991e-11,1.6377810385669597e-10,-5.688010552470203e-11,-7.930070931455177e-11,1.6383119056075281e-10,-5.687830332267949e-11,-7.910540204242746e-11,1.634851368315885e-10,-5.6939625814742934e-11,-7.869445492699731e-11,1.6228418081926547e-10,-5.754919725083674e-11,-8.007420440108801e-11,1.650733708698963e-10
-3.350031291108508e+19,1.2507170952526203e+19,3.633736334360927e+19,9.942049353490255e+36,3.085677581491367e+17,1.983822024318639e-10,-7.382604473361772e-11,-2.340441496601161e-10,1.9840490448139662e-10,-7.388498519668562e-11,-2.340608713961126e-10,1.9886839281193522e-10,-7.399002509624959e-11,-2.3314609739068266e-10,1.9889638861244485e-10,-7.439464584240114e-11,-2.331048755953654e-10,1.9944163732903427e-10,-8.414137798558737e-11,-2.3510029450931565e-10
2.6326838075164037e+18,-4.535413854968302e+19,-5.8419138357282546e+19,9.942049353490255e+36,3.085677581491367e+17,-5.2767736914589e-12,1.1714644116340137e-10,1.5641145259845462e-10,-5.294112671261561e-12,1.1717760474254922e-10,1.5638545173932528e-10,-5.219946076064787e-12,1.172584213406835e-10,1.565349473313308e-10,-5.147814065422294e-12,1.16101290982695e-10,1.5716303949709849e-10,-5.617713485387891e-12,1.1619671816781718e-10,1.582375780124698e-10
5.348179589489837e+18,8.796369108241582e+18,3.01628583335658e+18,9.942049353490255e+36,3.085677581491367e+17,-3.517267874463048e-10,-4.6207091134363937e-10,3.1307821540458204e-11,-3.5163749048971235e-10,-4.6200791532601453e-10,3.1046637677670485e-11,-3.522173385410971e-10,-4.6457202464009315e-10,3.1385421675295616e-11,-3.505600653908821e-10,-4.5132906193825114e-10,3.040796849507463e-11,-3.462061480819677e-10,-4.4232937710832014e-10,3.4523116749682116e-11
2.737582773559633e+19,7.660013993737153e+20,7.771424091951063e+20,9.942049353490255e+36,3.085677581491367e+17,-2.86023968053923e-14,-7.848202346080328e-13,-7.917369243455272e-13,-2.873362687970878e-14,-7.847587283060468e-13,-7.917179904529077e-13,-2.8152425752897233e-14,-7.849433048268079e-13,-7.922891429372745e-13,-2.8152425752897233e-14,-7.849433048268079e-13,-7.922891429372745e-13,-2.84591471616203e-14,-7.861678035014614e-13,-7.929934067022878e-13
1.01980510700136e+19,-1.0807323548600044e+19,2.728691339151689e+19,9.942049353490255e+36,3.085677581491367e+17,-1.5170322489033105e-10,2.5138831172608075e-10,-5.096132506591646e-10,-1.5154568226246788e-10,2.5131356854971226e-10,-5.097624332195477e-10,-1.513027816498142e-10,2.5085687074979954e-10,-5.096781745633428e-10,-1.5060742515083216e-10,2.514948939316659e-10,-5.104200249427563e-10,-1.4966114850459366e-10,2.556243922764357e-10,-5.079571940890356e-10
-3.812611589378005e+19,4.147893393702078e+17,3.5409996838756295e+19,9.942049353490255e+36,3.085677581491367e+17,2.1517780001123743e-10,-1.5425229676291974e-11,-2.0847270778027143e-10,2.1521873230909597e-10,-1.5397965702544645e-11,-2.0844063772468066e-10,2.1524563197678943e-10,-1.5707675965713282e-11,-2.0776354071929756e-10,2.1411445018356686e-10,-1.6567292370090566e-11,-2.0743159740011991e-10,2.1702856131427377e-10,-1.4809117396038677e-11,-2.0914830122646927e-10
1.6402343794834813e+18,1.4173449501262848e+19,-3.247945854869865e+18,9.942049353490255e+36,3.085677581491367e+17,-2.460336541331428e-10,-3.184712293805009e-10,-4.205669854399155e-10,-2.4585888449228043e-10,-3.184163905082904e-10,-4.207537253002036e-10,-2.466692837180272e-10,-3.199676634088401e-10,-4.1817281675336714e-10,-2.473512182361879e-10,-3.114502976365591e-10,-4.2750969195695425e-10,-2.229976543221027e-10,-3.0491411513403946e-10,-4.076734303315067e-10
-6.656253978535165e+18,-2.408813444389075e+18,8.529752396682524e+18,9.942049353490255e+36,3.085677581491367e+17,1.346562920342568e-10,1.84918090145713e-10,-4.979728018406914e-10,1.3491689246001977e-10,1.847901607286189e-10,-4.980410969790713e-10,1.3510008269423474e-10,1.8709526010980834e-10,-4.954036617485167e-10,1.3746118272120495e-10,1.905565923626452e-10,-4.965939584392481e-10,1.2791194210072495e-10,1.6441319164324523e-10,-5.019370019184508e-10
-3.0281418312964035e+19,-3.8264427579506565e+19,1.8255749357689965e+19,9.942049353490255e+36,3.085677581491367e+17,2.1495717443669174e-10,2.075651661765833e-10,-7.631644855670953e-11,2.149548004919472e-10,2.0748053305317387e-10,-7.624394924836846e-11,2.1480841081240937e-10,2.070176770940709e-10,-7.623108178362064e-11,2.1470361505773604e-10,2.077348717575678e-10,-7.448807824823262e-11,2.16351256396735e-10,2.053665349071085e-10,-7.664626184081479e-11
-8.262326023648483e+18,1.9024107823053332e+19,2.2729465988356825e+19,9.942049353490255e+36,3.085677581491367e+17,-3.78168010752735e-11,-3.79167096692784e-10,-4.2863945118334914e-10,-3.8034362602125474e-11,-3.791285971535233e-10,-4.284917183931585e-10,-3.832805951590643e-11,-3.790322490519085e-10,-4.279509748283979e-10,-2.9381082455129705e-11,-3.815228448704653e-10,-4.175008487266468e-10,-3.385695307052105e-11,-3.8556260895360857e-10,-4.1813751585276744e-10
1.4070461375867288e+19,1.250892115636509e+19,-2.7513099237325177e+19,9.942049353490255e+36,3.085677581491367e+17,-2.523962899608017e-10,-1.902638408026741e-10,2.880814684342891e-10,-2.5242860821310364e-10,-1.9018870996926738e-10,2.880706881958066e-10,-2.5293680778025396e-10,-1.8960963313073928e-10,2.894184242898605e-10,-2.541990620224365e-10,-1.917075703015369e-10,2.8786937945162453e-10,-2.533601525219146e-10,-1.9596146259940652e-10,2.8388320863668903e-10
1.4678502415715516e+19,-3.4370270954351826e+18,-1.8685406248597166e+18,9.942049353490255e+36,3.085677581491367e+17,-5.020140512253216e-10,1.090285235341059e-10,4.753495261322774e-11,-5.026122229458394e-10,1.0893090264480973e-10,4.7010431623755145e-11,-5.046926821039475e-10,1.0701621993982104e-10,4.6594285407032137e-11,-5.030633052768201e-10,1.0307354134847139e-10,4.853376832753637e-11,-4.919828958915398e-10,1.0020665370343025e-10,6.47336742712582e-11
9.973616054748668e+19,4.4468548712213996e+19,-4.7728273723610276e+19,9.942049353490255e+36,3.085677581491367e+17,-6.863885969491592e-11,-3.1031162207030654e-11,3.364564313132248e-11,-6.863010314647319e-11,-3.1029827555101844e-11,3.366271549039949e-11,-6.864574320518861e-11,-3.1033654780703826e-11,3.3727674725430584e-11,-6.854403079286715e-11,-3.1551438518531654e-11,3.395118324549377e-11,-6.83679467392689e-11,-3.132096376530134e-11,3.374498781590627e-11
4.5186106141129834e+19,5.745200674430862e+19,-2.881444311846429e+19,9.942049353490255e+36,3.085677581491367e+17,-8.04249434006634e-11,-1.217491578266263e-10,6.746943499513289e-11,-8.047569050338678e-11,-1.2178266969970042e-10,6.751817232363914e-11,-8.019824490979122e-11,-1.2166746972153244e-10,6.717847988456843e-11,-7.95851175230021e-11,-1.2098956698980446e-10,6.786247878916897e-11,-8.169625309862396e-11,-1.2316005247830635e-10,6.843837199146828e-11
5.242509845695459e+18,-1.5510300056214544e+19,3.407505165626896e+19,9.942049353490255e+36,3.085677581491367e+17,-5.562866807962389e-11,1.8627321558591151e-10,-3.8256292323265663e-10,-5.5618903131488124e-11,1.8613062703927357e-10,-3.826522735672947e-10,-5.676517633815469e-11,1.8609213498435737e-10,-3.827421802656983e-10,-5.691818069359347e-11,1.8592569910621933e-10,-3.798166655838883e-10,-6.045642647132487e-11,1.8047485580702834e-10,-3.7881878503700977e-10
3.223551531199383e+18,-4.918675111076984e+19,-3.787216410850652e+19,9.942049353490255e+36,3.085677581491367e+17,-9.202989925561849e-12,1.6187456468088576e-10,1.5543648473603502e-10,-9.12593369818925e-12,1.619826368991276e-10,1.5529513813438458e-10,-8.897708502909175e-12,1.6182876034613885e-10,1.549078859001685e-10,-8.974650515053964e-12,1.6134545895086722e-10,1.5596366333560162e-10,-8.009665237347829e-12,1.607066453379278e-10,1.5558889659150614e-10
1.1035285647451317e+17,2.117677365015027e+19,-1.5057570674891751e+19,9.942049353490255e+36,3.085677581491367e+17,-2.460375690128982e-11,-4.699467168457874e-10,2.9737255627147445e-10,-2.45654652195147e-11,-4.70089791274047e-10,2.9728335176740116e-10,-2.599551335884592e-11,-4.706697147120258e-10,2.9822319196172864e-10,-1.708450824767707e-11,-4.657396148204668e-10,2.999728941484182e-10,-1.6375048578072528e-11,-4.461312749713635e-10,2.8707069462900894e-10
-1.8164396563849568e+19,2.4649623612574778e+17,4.0816486128146616e+18,9.942049353490255e+36,3.085677581491367e+17,5.785041315955095e-10,-1.501434445720894e-11,-1.938085870504359e-10,5.78389881143564e-10,-1.4930817900871827e-11,-1.9355825330211228e-10,5.735124360735807e-10,-1.3637536078905349e-11,-1.937549988016137e-10,5.716125347367767e-10,-1.8480503574830397e-11,-1.9217398971308021e-10,5.625528483068117e-10,-1.2166339971228234e-11,-1.6234917439114883e-10
-2.1114113906365297e+19,-1.5853698784504318e+19,-5.715457378364052e+18,9.942049353490255e+36,3.085677581491367e+17,4.2735797243988845e-10,3.558499135820217e-10,2.3040025682684107e-10,4.269960519538019e-10,3.556284960631634e-10,2.3044007988243334e-10,4.272360210364376e-10,3.535338780849482e-10,2.2971230103468888e-10,4.2979638320002116e-10,3.527317895700437e-10,2.1946023244501504e-10,4.362871237479676e-10,3.4864100962965444e-10,2.1441013715920343e-10
-1.48016003978829e+19,1.8534312028734894e+19,-5.997432951875414e+18,9.942049353490255e+36,3.085677581491367e+17,4.2646309838081685e-10,-4.5216244787532453e-10,3.2059230189591734e-10,4.2654084717213705e-10,-4.519930338004975e-10,3.204950794799394e-10,4.254215924299125e-10,-4.5187651582046264e-10,3.2126017792706513e-10,4.2182795899683086e-10,-4.536637799279452e-10,3.185568703889605e-10,4.2271249127731484e-10,-4.456560231627893e-10,3.0938583765557755e-10
1.7699695693924704e+19,-5.591284590362713e+19,2.707636205520694e+19,9.942049353490255e+36,3.085677581491367e+17,-6.986823850610082e-11,2.008598231341247e-10,-1.0088352745576507e-10,-6.984998175605323e-11,2.0086970260988124e-10,-1.0085542813094525e-10,-6.993293615931128e-11,2.0084743391989341e-10,-1.0121061037556966e-10,-6.940147892920361e-11,1.9997557654870945e-10,-1.0082644127087198e-10,-6.995217705978122e-11,2.0189997887398163e-10,-1.0003864587510231e-10
-1.5919352776925278e+19,-3.0456966875339457e+19,-3.6802784444087414e+18,9.942049353490255e+36,3.085677581491367e+17,1.9061809692145606e-10,4.3094135818785156e-10,2.1728963922485598e-11,1.907701221014859e-10,4.3069257628935153e-10,2.186329092143919e-11,1.9153883621375088e-10,4.3008825882552483e-10,2.0953153543267276e-11,1.9625871290983564e-10,4.329673585122387e-10,1.9757436128319932e-11,1.9440834610913766e-10,4.314941937070081e-10,1.520519790584754e-11
3.609785444249372e+19,-4.702790736948278e+18,2.0175958461565895e+19,9.942049353490255e+36,3.085677581491367e+17,-3.3944542965458025e-10,2.2072496471750184e-11,-2.09106052516108e-10,-3.3938683081811466e-10,2.1992904858013588e-11,-2.0904612709943128e-10,-3.390977249335017e-10,2.1964636360775346e-11,-2.0872409058710142e-10,-3.396321360537568e-10,2.4494142730877716e-11,-2.073764242099788e-10,-3.410439893294281e-10,2.1267102615024304e-11,-2.0996276780100892e-10
-1.418695468997022e+19,-4.5222953827346355e+18,5.566260894734082e+18,9.942049353490255e+36,3.085677581491367e+17,3.8633881759045177e-10,1.8181889536346444e-10,-3.890856408086677e-10,3.865054953090833e-10,1.8189908987729455e-10,-3.8862212297699307e-10,3.8549854031448954e-10,1.8212045660142952e-10,-3.889953575837028e-10,3.877036486969331e-10,1.7561815036630573e-10,-3.8247464839359985e-10,3.9578099914484534e-10,1.5984068920852522e-10,-3.7818153840741393e-10
2.1875988304379072e+18,-6.840145410185407e+18,6.849292226078625e+18,9.942049353490255e+36,3.085677581491367e+17,-1.5804863332567206e-10,2.721797504882806e-10,-3.800996593829534e-10,-1.5856920962597353e-10,2.716246789045898e-10,-3.7998665620716855e-10,-1.597571392453963e-10,2.7195485909256226e-10,-3.7864795332520237e-10,-1.601881266262482e-10,2.792637290314786e-10,-3.7242829740934596e-10,-1.6508319354766746e-10,2.697336480469586e-10,-3.5586366304279574e-10
5.764319284639015e+19,-4.089243313782213e+19,-2.01301498437102e+19,9.942049353490255e+36,3.085677581491367e+17,-1.465452930731365e-10,1.0363312295708142e-10,5.6676533479346745e-11,-1.4654976855522386e-10,1.0361592605298499e-10,5.6589996931768566e-11,-1.467292833714148e-10,1.0343322095007057e-10,5.6577653976133387e-11,-1.46356372759818e-10,1.0333584832612659e-10,5.7151189191786865e-11,-1.4735684883453214e-10,1.049370918957686e-10,5.820655317141966e-11
-3.823320471174644e+19,-4.920468799834268e+19,2.739262643856953e+19,9.942049353490255e+36,3.085677581491367e+17,1.3834594041985426e-10,1.8329178693922202e-10,-9.458531271301201e-11,1.3835983053540596e-10,1.8329676094557895e-10,-9.456813360712599e-11,1.3797338677394972e-10,1.829205768472184e-10,-9.434875785637155e-11,1.3718696265223182e-10,1.8145816898016538e-10,-9.468301933725457e-11,1.3982164708811442e-10,1.8281589850411514e-10,-9.393510170956306e-11
-1.9520663137129267e+19,1.7254799060415873e+19,-1.5029513570331396e+19,9.942049353490255e+36,3.085677581491367e+17,3.1698058361306476e-10,-2.2491469341637216e-10,2.644650568302734e-10,3.170915022923803e-10,-2.2497273927684617e-10,2.643862769571586e-10,3.164224898025711e-10,-2.2396857259891912e-10,2.642462569179565e-10,3.153364325057859e-10,-2.2218073770577793e-10,2.6013185454078365e-10,3.244252848712056e-10,-2.2691026998696207e-10,2.556198459123434e-10
-4.70509297419786e+18,-1.1972730307005516e+19,-1.471696253065805e+19,9.942049353490255e+36,3.085677581491367e+17,1.1843738477534652e-10,2.585192078253409e-10,4.698105830590145e-10,1.1851329944217197e-10,2.585067534797751e-10,4.700659339802686e-10,1.1890045244096673e-10,2.5931097850196157e-10,4.72471864112863e-10,1.1762460700533982e-10,2.6121060627649786e-10,4.774317502292688e-10,1.173969933443975e-10,2.7808476589778416e-10,4.739644740356018e-10
1.3509989799714724e+19,-6.433773278452514e+19,-7.892305141287449e+18,9.942049353490255e+36,3.085677581491367e+17,-5.0342986075766955e-11,2.1258839643083226e-10,2.2319538520875116e-11,-5.0371008400318326e-11,2.1253515073059378e-10,2.2262861477555843e-11,-5.040127217680464e-11,2.1259670105581553e-10,2.208406381879417e-11,-5.0330149291668806e-11,2.1209626666634915e-10,2.1178988277286702e-11,-5.10146634093514e-11,2.1341969888472337e-10,2.1772895827645937e-11
3.3573259794214457e+19,1.3922265325392443e+19,-4.824508388414312e+18,9.942049353490255e+36,3.085677581491367e+17,-3.5670157054897804e-10,-1.5064061306558011e-10,8.297348076029857e-11,-3.5647757851388697e-10,-1.506811324828334e-10,8.29283709733601e-11,-3.568485690093628e-10,-1.5201831282568664e-10,8.321525769327878e-11,-3.5876483524345346e-10,-1.4985764340965934e-10,8.428017846554945e-11,-3.589352233003213e-10,-1.470357071524219e-10,7.897356870445392e-11
-9.537827332499653e+18,-3.3254445678645207e+19,-2.8006304290590757e+19,9.942049353490255e+36,3.085677581491367e+17,1.5063538962042227e-10,3.596059279204651e-10,4.0766990114652074e-10,1.5057106104183193e-10,3.5965958887400836e-10,4.077878981558e-10,1.498482613099054e-10,3.5899729520905795e-10,4.0795013553937837e-10,1.4672210054731213e-10,3.5687225215455064e-10,4.0771291937258176e-10,1.4533372037504827e-10,3.566964742803866e-10,4.044432926691209e-10
5.714694085138772e+19,-5.276942591084684e+19,6.068723533635008e+17,9.942049353490255e+36,3.085677581491367e+17,-1.3216903102721017e-10,1.1984656730259626e-10,-5.670085800435695e-12,-1.3211892275912592e-10,1.1982573103541865e-10,-5.674114895791458e-12,-1.3209745184360826e-10,1.1978404848693376e-10,-5.614682659083087e-12,-1.3189230238377884e-10,1.1981733167225033e-10,-5.598924773329141e-12,-1.3235841639134906e-10,1.2032774659130504e-10,-5.420424465505754e-12
-7.621548122649552e+18,7.987281355337851e+18,-1.257198592613465e+19,9.942049353490255e+36,3.085677581491367e+17,1.1304586701395389e-10,-2.033289413216749e-10,5.026513976330722e-10,1.1313514176450696e-10,-2.0316342975857984e-10,5.023587044402575e-10,1.152237071667757e-10,-2.0306037465947733e-10,5.040187992889026e-10,1.1451775733924061e-10,-2.0720909453778412e-10,5.059947437708938e-10,1.148097908253041e-10,-2.286577370076471e-10,5.023081650346904e-10
-1.4486296671331826e+19,4.219260487899636e+18,-3.708211138054094e+18,9.942049353490255e+36,3.085677581491367e+17,5.510661127776327e-10,-1.1090925903768136e-10,1.4833007957756645e-10,5.511275948111722e-10,-1.106391977483592e-10,1.4848686969484685e-10,5.480952659922408e-10,-1.0871720579790738e-10,1.4765189018613892e-10,5.386770580225372e-10,-1.1239164532374524e-10,1.3582533296496564e-10,5.425556974742148e-10,-1.1154719530866924e-10,1.1793628648638703e-10
1.6291871661646821e+19,1.9146196459451757e+19,-2.4924258631729852e+19,9.942049353490255e+36,3.085677581491367e+17,-2.2913629811374787e-10,-2.3949744438020524e-10,2.977365152970597e-10,-2.2911846347296774e-10,-2.3943868881077806e-10,2.976990322096655e-10,-2.3117823981683842e-10,-2.3871397828017755e-10,2.982268119627237e-10,-2.2985761012305534e-10,-2.405043128761201e-10,2.9669465570024586e-10,-2.2892100737603477e-10,-2.4269548520431573e-10,3.0313403462131434e-10
-4.85386049479643e+19,-8.709994428003834e+18,8.636090850022237e+18,9.942049353490255e+36,3.085677581491367e+17,3.3255236640295037e-10,6.958735639037388e-11,-3.410879505655895e-11,3.3241974604986914e-10,6.962467083188146e-11,-3.40351627305459e-11,3.3245805700441256e-10,6.952063074635129e-11,-3.4613447172398796e-11,3.346228299760535e-10,6.804628582031962e-11,-3.383602347509618e-11,3.2988546355177994e-10,6.621351191424623e-11,-3.2247727528179596e-11
-2.733382063436898e+19,-2.067492652726593e+18,2.9429236695687238e+19,9.942049353490255e+36,3.085677581491367e+17,2.7632764039893665e-10,6.307400604298346e-12,-3.102555508353191e-10,2.7640987302425914e-10,6.46638581843655e-12,-3.1025751853312933e-10,2.773185284011947e-10,7.22135345762611e-12,-3.093421437364328e-10,2.774412359495398e-10,6.103679084498858e-12,-3.0838867990384555e-10,2.7377349953974094e-10,6.292674310482981e-12,-3.058738716492789e-10
7.191113076593935e+19,5.190988752410649e+18,6.29216442811972e+19,9.942049353490255e+36,3.085677581491367e+17,-9.536254472299029e-11,-4.847765691369128e-12,-7.831877554176793e-11,-9.536961670224175e-11,-4.8399343516532994e-12,-7.833387343840635e-11,-9.526467970743814e-11,-4.810026182819922e-12,-7.834190908480386e-11,-9.519687326939383e-11,-4.678720397797007e-12,-7.810783364192965e-11,-9.363817540569892e-11,-5.14116391255484e-12,-7.845203285409096e-11
1.3539987865675588e+19,-2.192335178092309e+18,1.1064933425804812e+18,9.942049353490255e+36,3.085677581491367e+17,-4.886278864601906e-10,1.0512921541761531e-10,-5.635856294969164e-11,-4.888740949551155e-10,1.0501766824644646e-10,-5.730511526883871e-11,-4.917808527880038e-10,1.0460703697557395e-10,-5.4292533915540035e-11,-4.891174738207064e-10,9.016150787885532e-11,-5.981108358186128e-11,-4.843217182676224e-10,8.016575741404449e-11,-5.641353200852261e-11
-2.1557010401498184e+18,-4.9685499465396986e+17,-1.1455407389179329e+19,9.942049353490255e+36,3.085677581491367e+17,2.1093842363721076e-11,1.0609936259548252e-10,4.3187415051597113e-10,2.120563444301775e-11,1.0566175795144323e-10,4.323096920286746e-10,2.4716071450870076e-11,1.0517297735669878e-10,4.3044832595595385e-10,2.5674246680142553e-11,1.0835739336126973e-10,4.348078252756198e-10,5.729776558426717e-11,8.566288660017277e-11,4.443049397948152e-10
4.5721017434497044e+18,1.6655242306695152e+19,2.8519829813204434e+18,9.942049353490255e+36,3.085677581491367e+17,-1.9206518179566743e-10,-4.5494975598411043e-10,3.702226605956769e-12,-1.919683056651758e-10,-4.5479858335540765e-10,3.796444248106918e-12,-1.912515484551682e-10,-4.5351996368833076e-10,7.056214743959095e-12,-1.8518224015104496e-10,-4.577703624529289e-10,1.8904876108251384e-12,-1.862688630403851e-10,-4.5396173452011135e-10,-3.804193260092861e-12
-1.448286302446023e+19,5.956657220346854e+19,-5.107375283681854e+18,9.942049353490255e+36,3.085677581491367e+17,1.1408738174134487e-10,-2.3362883386429046e-10,-4.2872220384836137e-11,1.1414948536429056e-10,-2.336780966652063e-10,-4.2974356571025326e-11,1.1425294861766057e-10,-2.3376872423621417e-10,-4.2958654441643896e-11,1.1350973236862626e-10,-2.32369360863901e-10,-4.3199545436368675e-11,1.1266392516302413e-10,-2.3281832121301383e-10,-4.304595177298735e-11
1.752626879589077e+18,-1.7114259675491725e+19,-1.8590664147107176e+19,9.942049353490255e+36,3.085677581491367e+17,-7.129116379834888e-11,3.9744005549702327e-10,3.949796265873916e-10,-7.124706597714668e-11,3.973546339866171e-10,3.9494496502031873e-10,-7.331072506572931e-11,3.961404739613621e-10,3.944682351141435e-10,-7.413046948554312e-11,3.9490909195745097e-10,3.8840250980891325e-10,-5.25991339026113e-11,4.0419114204053167e-10,3.7625725764732633e-10
-2.772091193650278e+18,-3.514626384795989e+19,6.784732844503008e+18,9.942049353490255e+36,3.085677581491367e+17,-2.990240126930566e-11,4.799055422342484e-10,-6.034061530407208e-11,-2.9853996900813386e-11,4.800190849040291e-10,-6.016914610492691e-11,-2.985223193715078e-11,4.805630839906089e-10,-6.038094643831247e-11,-2.702973005638694e-11,4.841499504139791e-10,-6.123931577059964e-11,-2.9126294985200996e-11,4.828416596878974e-10,-6.714575947301058e-11
6.386237638919842e+19,9.936178670302514e+19,1.8346326763861597e+20,9.942049353490255e+36,3.085677581491367e+17,-7.821862219620806e-12,-1.2761319935640449e-11,-2.2875219673282172e-11,-7.818893719342263e-12,-1.27628077607155e-11,-2.2875460541818047e-11,-7.832194076319086e-12,-1.2769066854656378e-11,-2.2807128176738676e-11,-7.900314379435042e-12,-1.2762265274822461e-11,-2.2873586545054444e-11,-7.982961898289214e-12,-1.2743414087040342e-11,-2.282927232099692e-11
2.826119440196418e+19,1.3605537546977176e+19,-4.840170927388521e+17,9.942049353490255e+36,3.085677581491367e+17,-4.877066141935046e-10,-4.1926890978840533e-10,4.669409611262191e-10,-4.87216828286611e-10,-4.1923055672078796e-10,4.669445200143165e-10,-4.873541355808175e-10,-4.1950907165125157e-10,4.6552083601817787e-10,-4.918814552505256e-10,-4.1557349239811957e-10,4.684341560011804e-10,-4.940004184700167e-10,-4.1904729756520367e-10,4.701305213009383e-10
-7.834558584203133e+18,6.8235894939573e+18,7.042210885748524e+18,9.942049353490255e+36,3.085677581491367e+17,1.4274214837899644e-10,-1.2899829424082165e-11,-2.3857193855660317e-10,1.429211905862922e-10,-1.2890209911644863e-11,-2.377904976668572e-10,1.42704902265492e-10,-1.2368073605652112e-11,-2.372373834068853e-10,1.2743603673007813e-10,-1.3724328843739141e-11,-2.2704505685268675e-10,1.3058082280704954e-10,-6.458331986938239e-12,-2.19667963658598e-10
6.2661083924900995e+19,1.1628788439300321e+19,-1.4361194281338649e+19,9.942049353490255e+36,3.085677581491367e+17,-2.208882708660559e-10,-4.761811650811374e-11,5.892681182629855e-11,-2.2095069688367422e-10,-4.766200145555853e-11,5.894213984018312e-11,-2.209009766641799e-10,-4.75089563710794e-11,5.92022170124734e-11,-2.1880499537328162e-10,-4.7365192819054665e-11,5.916198471106354e-11,-2.1848814587002668e-10,-4.817688004263909e-11,5.83886116624132e-11
8.25866876177786e+18,-8.274182743657262e+18,1.1267904526838161e+18,9.942049353490255e+36,3.085677581491367e+17,-3.9793331170163274e-10,3.49045293947445e-10,-4.776877247411348e-11,-3.978842301553204e-10,3.4893906893936227e-10,-4.7955165533564623e-11,-4.0027776779313303e-10,3.515575870641177e-10,-5.223737771397538e-11,-3.893856410080728e-10,3.5531969354330786e-10,-4.95256453051203e-11,-3.879877579242265e-10,3.350517076372457e-10,-5.381352972722616e-11
9.140760771809164e+19,-7.819604371974085e+19,3.3702984991370506e+19,9.942049353490255e+36,3.085677581491367e+17,-5.836332313280936e-11,4.8207484466347106e-11,-2.1186183872052343e-11,-5.833695728169747e-11,4.8185168893008246e-11,-2.1175175716830355e-11,-5.840384147459548e-11,4.8257532426418094e-11,-2.1265201681249377e-11,-5.82083940584325e-11,4.824369234142741e-11,-2.1304614252541144e-11,-5.798926284705523e-11,4.7945127594791345e-11,-2.0964309001570442e-11
-3.336881159335652e+18,-1.3521650735739886e+20,2.5714839229021503e+19,9.942049353490255e+36,3.085677581491367e+17,2.207426755367585e-12,6.524552734521278e-11,-1.2746858543443487e-11,2.183766860036292e-12,6.52581093686947e-11,-1.2747392639103663e-11,2.281142922355044e-12,6.526711095989263e-11,-1.2699633184971046e-11,2.3542856524593683e-12,6.52061120886325e-11,-1.2816966307281449e-11,1.893427215382118e-12,6.524189933178683e-11,-1.2526626101645786e-11
-2.0255614890132455e+19,-1.0352505833680601e+19,2.1856975846535266e+19,9.942049353490255e+36,3.085677581491367e+17,3.355502957863974e-10,1.6376034925609339e-10,-3.4124255508360403e-10,3.3522344000958855e-10,1.6386012203119375e-10,-3.410099653602262e-10,3.349860581347523e-10,1.645739415713016e-10,-3.4089553646585327e-10,3.33674715784078e-10,1.6366348161198587e-10,-3.4046872389107327e-10,3.296617098545516e-10,1.6008339206644879e-10,-3.4150938037611915e-10
5.224577526751969e+18,-1.33920834710664e+19,-4.969118770944216e+18,9.942049353490255e+36,3.085677581491367e+17,-5.851766938106589e-11,3.710480473405532e-10,2.338369759895678e-10,-5.890488661961574e-11,3.7070523568304514e-10,2.3413290514222917e-10,-5.970011143627924e-11,3.71484144576783e-10,2.3064997611667958e-10,-6.254316536427674e-11,3.6845702518429607e-10,2.3571151816970966e-10,-4.807252223633984e-11,3.5091758117542074e-10,2.393065453538981e-10
9.219620602869259e+19,8.377018469924679e+19,1.301954635533601e+19,9.942049353490255e+36,3.085677581491367e+17,-6.001624372495757e-11,-5.3029158590462894e-11,-2.105540057017523e-12,-6.001863185344048e-11,-5.3043483665408234e-11,-2.107936576665601e-12,-5.9988933138467e-11,-5.3112505182470017e-11,-2.2077729080216887e-12,-6.001516502930957e-11,-5.322392695267544e-11,-2.2460111703623456e-12,-6.006703340018054e-11,-5.343894432215037e-11,-2.1060761787240314e-12
7.630289751778515e+19,-1.574647085864714e+19,-8.590693222349106e+19,9.942049353490255e+36,3.085677581491367e+17,-5.706946604691312e-11,9.93098433410336e-12,6.525835387184188e-11,-5.7057957133752906e-11,9.937762931864625e-12,6.523059935403848e-11,-5.6966692275437394e-11,9.983244101021724e-12,6.519999647204734e-11,-5.708679549370438e-11,1.0163431506933412e-11,6.527375443789951e-11,-5.684392787801199e-11,1.0526316284364198e-11,6.549645267323501e-11
-3.1414611728030896e+19,3.2101267930303783e+19,-1.6607614753356863e+19,9.942049353490255e+36,3.085677581491367e+17,2.0421410039505135e-10,-2.5463952136177544e-10,1.4040942308509527e-10,2.042579248224487e-10,-2.545783089747122e-10,1.403662388105111e-10,2.0444580637244458e-10,-2.538336177385504e-10,1.4033914876639326e-10,2.055784163229131e-10,-2.556600516178854e-10,1.3960298999033736e-10,1.9825003747935941e-10,-2.5140785827904644e-10,1.4061451817251995e-10
-3.548067091364288e+18,-1.9025685148226322e+19,8.8682603028721e+18,9.942049353490255e+36,3.085677581491367e+17,1.7480708591495547e-10,4.037425292588517e-10,-2.842215341190081e-10,1.75128807635329e-10,4.036321433397611e-10,-2.8407091627118095e-10,1.752928057641102e-10,4.0101142879157996e-10,-2.843749356188692e-10,1.8168531482841465e-10,3.988472925200964e-10,-2.872896139970638e-10,1.732454977571306e-10,3.967980501317951e-10,-2.9731815056339793e-10
-2.698259708858313e+19,-3.6608756427909075e+17,-1.1194343334389279e+19,9.942049353490255e+36,3.085677581491367e+17,5.328560606686389e-10,1.4049596508513053e-10,2.5588693466650883e-10,5.327224971376889e-10,1.403253745866734e-10,2.558511949230012e-10,5.332380878007108e-10,1.3912424336098028e-10,2.562687035450285e-10,5.297334902012991e-10,1.4142960199380047e-10,2.485942968056915e-10,5.324632421837911e-10,1.4639481221138982e-10,2.441191931104097e-10
6.542890125921151e+18,1.1238465505831328e+19,-3.4359646188754305e+19,9.942049353490255e+36,3.085677581491367e+17,-3.313989755104113e-11,-1.1504973975524678e-10,3.9492424101147576e-10,-3.324932150259446e-11,-1.1501563095380712e-10,3.9509687347361116e-10,-3.4782510417794125e-11,-1.1525478960056269e-10,3.961601394510346e-10,-3.566983597579527e-11,-1.202915228127707e-10,3.970816149981268e-10,-2.7014100970039694e-11,-1.1551695673415863e-10,3.990718615247957e-10
2.6627791619740836e+19,-1.1038027539978093e+19,2.6774782926118875e+19,9.942049353490255e+36,3.085677581491367e+17,-2.9351274629405653e-10,1.0544846478283541e-10,-2.928561563807641e-10,-2.9364442588709816e-10,1.0538691387380681e-10,-2.9285141058976965e-10,-2.927559001850078e-10,1.0437220712523085e-10,-2.915980665297404e-10,-2.9048411193755677e-10,1.051140934373068e-10,-2.914255773768434e-10,-2.903696319500775e-10,1.0892615930707708e-10,-2.9539817735598375e-10
1.8240068375168604e+19,3.236470586739385e+19,1.325616799015753e+19,9.942049353490255e+36,3.085677581491367e+17,-1.886989845575797e-10,-3.3927032142207246e-10,-1.5307677569192943e-10,-1.8866590694949807e-10,-3.390530658043591e-10,-1.529032163945251e-10,-1.8987545230283897e-10,-3.381676184173387e-10,-1.5223479518813293e-10,-1.9129037847844842e-10,-3.392895263332384e-10,-1.525547822567371e-10,-1.9610706615084508e-10,-3.4149613761258473e-10,-1.492689644879563e-10
3.271299974220443e+19,3.3621722543506145e+19,9.679400311052016e+18,9.942049353490255e+36,3.085677581491367e+17,-1.0331084514097836e-10,-2.1561141340316985e-10,-8.066121824549911e-12,-1.0314614826655372e-10,-2.154040185058159e-10,-8.033654718861452e-12,-1.0360403647020433e-10,-2.1554358277200847e-10,-8.216104752932428e-12,-1.0429206251917942e-10,-2.158188380959972e-10,-7.502050179776501e-12,-1.0329363484692085e-10,-2.1326276781065866e-10,-3.1606052488048988e-12
-8.775765323073061e+18,-5.054573816430261e+18,2.2555732969552942e+18,9.942049353490255e+36,3.085677581491367e+17,9.196773962195811e-11,1.0288578775118972e-10,7.99456656875615e-11,9.25679288978023e-11,1.028295432234617e-10,8.032234589190133e-11,9.40760082629572e-11,1.0001505352721275e-10,7.992710152294541e-11,1.0546254397807536e-10,1.0317692114687889e-10,6.908993304177233e-11,9.741007941635133e-11,1.1620949069653674e-10,8.18962523992744e-11
2.1234249762681496e+19,-1.3174690697992129e+19,-3.3325507420912595e+19,9.942049353490255e+36,3.085677581491367e+17,-2.2994355767012157e-10,1.224019463786416e-10,3.140556592184313e-10,-2.3014797070885954e-10,1.2256212099455412e-10,3.1393844703350546e-10,-2.2989327811420264e-10,1.2220165435947425e-10,3.131234215308312e-10,-2.2663593865464516e-10,1.2237577384159057e-10,3.111254735453241e-10,-2.2781161162014402e-10,1.1318911058622881e-10,3.11583320868735e-10
-1.1546729806719856e+20,1.6347738717026607e+19,-8.732421292054695e+19,9.942049353490255e+36,3.085677581491367e+17,4.584165900008778e-11,-7.736172319548153e-12,3.5918689462359166e-11,4.585775373590539e-11,-7.73523842960783e-12,3.59406908058551e-11,4.593072965995486e-11,-7.697094224962309e-12,3.597584669772661e-11,4.573059674445517e-11,-7.756776101685204e-12,3.574705305085361e-11,4.5972496453718005e-11,-7.644550462841724e-12,3.576012238683855e-11
-3.320991328460276e+19,2.4274161965328806e+19,8.631998460958688e+18,9.942049353490255e+36,3.085677581491367e+17,3.8762101100827863e-10,-2.4476115293236767e-10,-3.5441225653015155e-11,3.876694264214831e-10,-2.447405067177346e-10,-3.546450673101319e-11,3.8643300650830437e-10,-2.444959970967648e-10,-3.5527664947924426e-11,3.8744274617178244e-10,-2.446425579715717e-10,-3.457582883762656e-11,3.6916740604808297e-10,-2.4653953151736904e-10,-3.349576988312832e-11
2.2843897112078326e+17,9.133774427601372e+18,-6.81058551070135e+18,9.942049353490255e+36,3.085677581491367e+17,7.38729426113759e-11,-1.5834289731290744e-10,2.9543907075095345e-10,7.405697842406261e-11,-1.5823444611343547e-10,2.9532415688542753e-10,7.342422361590398e-11,-1.6059528862321898e-10,2.9679297459932243e-10,7.2348595281973e-11,-1.6035861694094424e-10,2.9575218888205545e-10,7.658860711972411e-11,-1.8226258153263828e-10,2.8778085540431513e-10
-2.002384344524032e+18,-9.779317377806037e+18,6.707295361511144e+17,9.942049353490255e+36,3.085677581491367e+17,-5.813515099743267e-10,3.026092943128452e-10,-1.546023883934355e-10,-5.80761559655748e-10,3.0254454566835594e-10,-1.54495452821004e-10,-5.796817809705926e-10,3.022441421451205e-10,-1.543518915431701e-10,-5.665468420518618e-10,3.105802630544542e-10,-1.6093553672908516e-10,-5.195438411912707e-10,3.308321434532653e-10,-1.9004819145275935e-10
-1.8777579973460185e+19,-2.899214723227063e+19,9.753172799297047e+18,9.942049353490255e+36,3.085677581491367e+17,2.05954504302781e-10,3.5106888340410453e-10,-1.2210354361888227e-10,2.061716432714158e-10,3.5085137011901127e-10,-1.218253725740496e-10,2.0583659837378945e-10,3.5048740150869425e-10,-1.2171864493465452e-10,2.074232002458935e-10,3.444639945309091e-10,-1.2116435501623472e-10,2.061891193272982e-10,3.4425983498481813e-10,-1.174247888848828e-10
-3.5601355034206054e+18,-2.336107565731505e+18,1.9658944852236833e+19,9.942049353490255e+36,3.085677581491367e+17,1.595165343961234e-10,6.123507321462865e-11,-2.993220474194002e-10,1.5947375424939436e-10,6.138445499338481e-11,-2.994369656784442e-10,1.602277239560164e-10,6.30420951404844e-11,-3.0150127828259206e-10,1.568140187948369e-10,6.31636439771914e-11,-3.0411875638942966e-10,1.5775315015589958e-10,5.4224403568112805e-11,-2.8938965689678205e-10
-2.504325176270529e+19,1.4626313651990227e+19,-3.1126706841240166e+19,9.942049353490255e+36,3.085677581491367e+17,2.0241854757772086e-10,-1.4388295880269835e-10,2.933784232642175e-10,2.025449239838121e-10,-1.4382091627369485e-10,2.933974111800911e-10,2.0305574745110385e-10,-1.4366082531461492e-10,2.924696122535033e-10,2.0633224734857576e-10,-1.4200828567232048e-10,2.9463725957625814e-10,2.006593296410978e-10,-1.413901936717016e-10,2.9625431309283147e-10
1.934112129070593e+19,3.347753964167955e+18,7.131709729293945e+19,9.942049353490255e+36,3.085677581491367e+17,-4.993413979406218e-11,-1.0487578680066841e-11,-1.826681616060586e-10,-4.995798918107901e-11,-1.0499391530068243e-11,-1.8270225928460898e-10,-4.992813661572203e-11,-1.0326774023052419e-11,-1.8277531976943959e-10,-4.828499369063167e-11,-1.0435074509321203e-11,-1.8005645112671913e-10,-4.948039389466e-11,-1.1047951008367718e-11,-1.815648895059631e-10
3.686846064378087e+19,1.6581388460134089e+19,2.6450809535943434e+19,9.942049353490255e+36,3.085677581491367e+17,-2.401460413899536e-10,-1.2032975880757037e-10,-1.7319090245577054e-10,-2.399893260509282e-10,-1.2032989444558394e-10,-1.7308847682868894e-10,-2.3985359058839194e-10,-1.1933881878330398e-10,-1.7261089593898932e-10,-2.4173097352213896e-10,-1.2024236153514217e-10,-1.7262079838963345e-10,-2.4089712286100723e-10,-1.1904791985706128e-10,-1.7008255741152992e-10
-9.065467308749167e+18,1.4869532215381047e+19,4.5064197983502633e+18,9.942049353490255e+36,3.085677581491367e+17,5.078627841643821e-10,-7.2432233342577e-10,4.671982431660828e-10,5.080199798478352e-10,-7.240389124934228e-10,4.67536000791291e-10,5.068212942177699e-10,-7.22281212456179e-10,4.677226970397348e-10,5.031751682465422e-10,-7.306429776723789e-10,4.670534094155881e-10,5.019490231461191e-10,-7.011122099897508e-10,4.806948384981657e-10
-1.898968868162801e+19,2.13556027695022e+19,-3.506727979312616e+19,9.942049353490255e+36,3.085677581491367e+17,1.5383966537018379e-10,-1.7238058576773657e-10,2.7415999446682454e-10,1.5401785265523952e-10,-1.7239438572622733e-10,2.740846555405617e-10,1.5575486576111715e-10,-1.7235465764179891e-10,2.7490813860711834e-10,1.5829198214684873e-10,-1.6976198198026557e-10,2.7523674514109664e-10,1.5382575348904117e-10,-1.676998197751534e-10,2.742155491388414e-10
2.1083616401297093e+19,2.8586328621956704e+17,-3.331440525077529e+18,9.942049353490255e+36,3.085677581491367e+17,-5.378112936041353e-10,1.0892019180875272e-10,9.489618773878653e-11,-5.378976287414119e-10,1.0861728433640061e-10,9.438131022417486e-11,-5.34539705584273e-10,1.0744243005971735e-10,9.460724876212996e-11,-5.334174621135231e-10,1.0003463823181249e-10,9.545309861437132e-11,-5.09745974661202e-10,9.55275623587835e-11,9.87914351178257e-11
-2.3134913325308596e+19,1.9786433571805e+19,1.195467098314532e+19,9.942049353490255e+36,3.085677581491367e+17,3.3688023904338874e-10,-3.224013577707338e-10,-1.7815364055617676e-10,3.3657638132715483e-10,-3.225690491577677e-10,-1.7834783042337772e-10,3.363486549096621e-10,-3.2304172493970384e-10,-1.78508163773494e-10,3.358107785717916e-10,-3.238792164748184e-10,-1.7850412909320692e-10,3.4029432088901664e-10,-3.359496159616862e-10,-1.6851303317683452e-10
-8.693350540633238e+18,-8.602900640053249e+18,-1.334061377597231e+18,9.942049353490255e+36,3.085677581491367e+17,3.4019266515298217e-10,3.6738931977153507e-10,1.1584003703219236e-10,3.4050318499193073e-10,3.6752488523250577e-10,1.1582274329825302e-10,3.403264262042727e-10,3.636446197252611e-10,1.1458954291715617e-10,3.432029178655596e-10,3.689968052097731e-10,1.077519962736448e-10,3.491687349688416e-10,3.6954718282351033e-10,1.2460460774450315e-10
-1.6546295433814106e+19,2.1402734342921466e+19,-6.131550712659744e+19,9.942049353490255e+36,3.085677581491367e+17,6.360925733092095e-11,-7.001955279572355e-11,1.8690167363029942e-10,6.365954613555736e-11,-7.004461884728987e-11,1.8704333157753138e-10,6.359375844597001e-11,-6.998962846726483e-11,1.8708298506143806e-10,6.187604008370278e-11,-6.931505139212043e-11,1.8572334221386464e-10,6.22125672069809e-11,-6.953466674277267e-11,1.8674778184943211e-10
1.1727386322210847e+19,5.25392926098159e+19,6.282341944627631e+18,9.942049353490255e+36,3.085677581491367e+17,-6.51895245550565e-11,-2.7890547591789247e-10,-2.979480006410218e-11,-6.530046313270753e-11,-2.789532095977151e-10,-2.994500515577218e-11,-6.533694596476337e-11,-2.7904733420090703e-10,-2.974309658921515e-11,-6.403343889687904e-11,-2.7873961787590247e-10,-2.917106340353739e-11,-6.335166766514114e-11,-2.748156187255727e-10,-2.7687951761153463e-11
8.817291922625949e+19,-3.3134990842122334e+19,-5.320483546770823e+19,9.942049353490255e+36,3.085677581491367e+17,-7.985275354784268e-11,2.7621828036229137e-11,5.1996626849018865e-11,-7.983777463276283e-11,2.7623243451148308e-11,5.1977577690942293e-11,-7.964929073438555e-11,2.7570598377073123e-11,5.187477126370103e-11,-8.018924246589293e-11,2.802280170377937e-11,5.234104177405247e-11,-7.94354359106496e-11,2.819200906148439e-11,5.203070982556182e-11
3.146985004486741e+19,3.2698869834717397e+19,-6.88501061489096e+19,9.942049353490255e+36,3.085677581491367e+17,-6.428420434144456e-11,-6.115011343013437e-11,1.364572706737318e-10,-6.432142269060839e-11,-6.118265153552601e-11,1.3645837011205163e-10,-6.417900616283013e-11,-6.08105971666304e-11,1.3619109154663826e-10,-6.366233143247759e-11,-6.087152471083905e-11,1.3565238917047882e-10,-6.032750688561144e-11,-6.247279276205783e-11,1.337316652120166e-10
-5.42323407600781e+18,3.340959854788806e+18,4.8125914347843e+18,9.942049353490255e+36,3.085677581491367e+17,7.275892431884406e-12,1.6280068484011854e-11,-2.1416179260065797e-10,7.551484390492772e-12,1.6115211418336956e-11,-2.1383434709042737e-10,8.523378542636405e-12,1.6396810824519954e-11,-2.1260239761511857e-10,-1.271015505023137e-11,8.49647522288709e-12,-2.144104007207763e-10,-2.654960788113051e-11,2.624381015365048e-11,-1.979222591174666e-10
-5.730144609949685e+19,-4.816431075093459e+18,7.131617354292821e+18,9.942049353490255e+36,3.085677581491367e+17,2.1489797390611785e-10,6.0129952655587705e-12,2.2062980262311322e-11,2.1481530350811058e-10,6.037408086850925e-12,2.2096629300323892e-11,2.1533522465077534e-10,5.347911231633419e-12,2.2147964747369765e-11,2.1458939013859272e-10,4.472043571502498e-12,2.3253639463864005e-11,2.1326515458643715e-10,4.265600680919031e-12,2.3057210609091395e-11
-1.540245741913751e+19,-3.1844602365990773e+19,5.929640096817287e+19,9.942049353490255e+36,3.085677581491367e+17,4.602104005137968e-11,9.537278738266691e-11,-1.9551725450190698e-10,4.602114176201183e-11,9.54266323875395e-11,-1.954582817484249e-10,4.597931452281693e-11,9.542168473894404e-11,-1.9525447923942513e-10,4.630657667980583e-11,9.444110352234311e-11,-1.9498601711393354e-10,4.645233300842548e-11,9.70312992253203e-11,-1.9823557016743614e-10
-1.8140732814556303e+18,-1.030764321233065e+19,6.086253615368115e+18,9.942049353490255e+36,3.085677581491367e+17,-4.552149370388139e-11,3.9782993920884073e-10,-3.3723699988064553e-10,-4.566851959887229e-11,3.97682930256721e-10,-3.3810812180683034e-10,-4.3869555307873665e-11,3.9848585488208905e-10,-3.3495253260368536e-10,-3.879736911493594e-11,4.0239784407474667e-10,-3.2695127890954083e-10,-4.737656345741937e-11,4.0010532778248667e-10,-3.1403361772688394e-10
-1.556496476836229e+19,5.413609186870467e+19,1.0867032040953661e+19,9.942049353490255e+36,3.085677581491367e+17,8.331120666340639e-11,-2.5501216529952356e-10,-5.669977437117511e-11,8.343987224669658e-11,-2.5500644284371547e-10,-5.6716373319361574e-11,8.320817649972536e-11,-2.549166394406016e-10,-5.655743302698595e-11,8.21054080525612e-11,-2.5334096227903547e-10,-5.660568261299636e-11,7.945749491760054e-11,-2.5326829858660395e-10,-5.37160143246359e-11
7.381686379236062e+19,1.4664451827826786e+19,3.797559320892933e+19,9.942049353490255e+36,3.085677581491367e+17,-1.311291143737089e-10,-2.4854487192402248e-11,-6.467392300373787e-11,-1.3110555735983707e-10,-2.4842740036228714e-11,-6.467438216737682e-11,-1.3084415723078463e-10,-2.4824717417963882e-11,-6.472044711518855e-11,-1.3103548983476818e-10,-2.497429062327334e-11,-6.44270503263078e-11,-1.3101783018657284e-10,-2.4696580718432893e-11,-6.497579124334828e-11
2.6670082969836534e+18,-6.651592532384529e+18,2.382373049279117e+19,9.942049353490255e+36,3.085677581491367e+17,-2.447836656635495e-11,9.325459448777098e-11,-4.876813657157702e-10,-2.4053264073267595e-11,9.321053911907599e-11,-4.873249725957322e-10,-2.3545596875674256e-11,9.355429412975384e-11,-4.872903986384979e-10,-2.5302862505737125e-11,9.593013037047798e-11,-4.859151358048528e-10,-4.848781394116341e-12,7.353845059415807e-11,-4.982476393732175e-10
1.294874944493408e+18,5.466678968553839e+18,-1.672317197098842e+19,9.942049353490255e+36,3.085677581491367e+17,-1.8087355307580717e-10,-2.1956913926754518e-10,4.1475063204565793e-10,-1.8134439787209615e-10,-2.1970607954344792e-10,4.146902143365712e-10,-1.796732729451749e-10,-2.211540430067348e-10,4.162133049200344e-10,-1.8259305601422577e-10,-2.1965990973372224e-10,4.1719190507446775e-10,-1.9081346729210886e-10,-2.1490917596269883e-10,4.1628821418168074e-10
-9.91901862998529e+18,2.590082130596824e+19,-4.795769996535175e+18,9.942049353490255e+36,3.085677581491367e+17,1.9134868641183334e-10,-5.568760435399181e-10,1.620647194806352e-10,1.913075252495644e-10,-5.568406250136891e-10,1.6198885475797418e-10,1.906314529128162e-10,-5.578605422520852e-10,1.60296383581911e-10,1.9056809316864574e-10,-5.535340550446478e-10,1.5799299547878834e-10,1.9450627755968216e-10,-5.589107042854185e-10,1.4946053504376892e-10
-1.5168985371526496e+19,1.2698742695966968e+19,2.562669171427581e+19,9.942049353490255e+36,3.085677581491367e+17,3.0323009604184784e-10,-1.1792294052853983e-10,-5.065010087664525e-10,3.0317321938942725e-10,-1.179568524918314e-10,-5.06583627570275e-10,3.023795924772413e-10,-1.185408453950798e-10,-5.065004247104071e-10,3.018592239156158e-10,-1.1825632332365144e-10,-5.117978039050902e-10,3.1188666006811735e-10,-1.2869290181069853e-10,-5.050904170413373e-10
6.650580579817092e+18,-4.2516998323152026e+18,5.226345243837978e+18,9.942049353490255e+36,3.085677581491367e+17,-8.419936159804481e-10,7.404366551163856e-10,-5.34724133398075e-10,-8.418695578039046e-10,7.404267653082927e-10,-5.349645324600481e-10,-8.404021103435387e-10,7.431943708019037e-10,-5.310401407974899e-10,-8.379376766990461e-10,7.44699371721745e-10,-5.348536172469112e-10,-8.801350217817442e-10,7.688452540852338e-10,-5.680573503737753e-10
-1.021726231550558e+19,-2.1454151164532187e+19,1.2249815271131836e+19,9.942049353490255e+36,3.085677581491367e+17,2.3012553938799799e-10,4.1547949641461003e-10,-2.763722215330083e-10,2.3028487795187897e-10,4.1552903569563315e-10,-2.761154578123052e-10,2.3144214708913552e-10,4.148276939829829e-10,-2.745650861544048e-10,2.324012862842014e-10,4.147703768766789e-10,-2.7939615631620325e-10,2.2394232986599728e-10,4.0525462923461507e-10,-2.674094926885933e-10
-6.825624753522508e+19,6.712589146300742e+19,4.282101481766927e+19,9.942049353490255e+36,3.085677581491367e+17,6.837902006659833e-11,-6.899664079245838e-11,-4.195481258807921e-11,6.834336832853863e-11,-6.896454325914045e-11,-4.1912722276332325e-11,6.801021412796434e-11,-6.874580825430459e-11,-4.198554432809525e-11,6.875561165355319e-11,-6.953760287793821e-11,-4.198558420694781e-11,6.83344374374278e-11,-6.906513259672708e-11,-4.117115296497448e-11
-3.774146992746664e+19,-3.2768638035611333e+19,-3.5985858796082737e+19,9.942049353490255e+36,3.085677581491367e+17,1.658391372055968e-10,1.1754986099255627e-10,1.5456949810151887e-10,1.6586508789180726e-10,1.1747919933597892e-10,1.5459878329301195e-10,1.6576373433989e-10,1.1758091502141999e-10,1.5435417296960948e-10,1.6612782067925806e-10,1.1695725275057766e-10,1.5539015588442426e-10,1.633566073567151e-10,1.1653949353863838e-10,1.5512818519925002e-10
8.092088225716874e+17,-1.6180994379181093e+19,1.3442029787582003e+19,9.942049353490255e+36,3.085677581491367e+17,-3.2068870102606255e-11,3.0961892249324604e-10,-3.2556438898539393e-10,-3.188995696196209e-11,3.0951228599888035e-10,-3.254345356078314e-10,-3.2643728164878186e-11,3.0753405591210476e-10,-3.2438912274059703e-10,-3.3178402120034806e-11,3.0322910958261067e-10,-3.263743792754856e-10,-1.6416954003928135e-11,3.1665545482553793e-10,-3.3242830865721396e-10
6.865889538951199e+18,-3.6239507049089266e+19,-4.793866575836694e+19,9.942049353490255e+36,3.085677581491367e+17,-2.761235427621092e-11,1.5457196946809273e-10,2.1418944874518215e-10,-2.7529516685444022e-11,1.5460512640134192e-10,2.1418339449831377e-10,-2.7457014363682797e-11,1.5476409870670348e-10,2.1387870311928484e-10,-2.6266285881843546e-11,1.542131373669558e-10,2.1324273951311116e-10,-2.6073798713139576e-11,1.55140989840039e-10,2.14239355819576e-10
1.8348188279517725e+19,-1.508749748479219e+19,2.563170511977097e+19,9.942049353490255e+36,3.085677581491367e+17,-2.8802231852557475e-10,1.7040533287153717e-10,-3.199371391538146e-10,-2.882040861815992e-10,1.7036913411336798e-10,-3.199892143209748e-10,-2.8888773741355024e-10,1.7122696316070237e-10,-3.208235211682553e-10,-2.8632771143298145e-10,1.7114069963578246e-10,-3.159326858501641e-10,-2.70587619223689e-10,1.8070780538110722e-10,-3.281868167606162e-10
-2.4190613456569676e+19,-5.301504210868399e+19,-9.006995108523847e+18,9.942049353490255e+36,3.085677581491367e+17,1.196901727530813e-10,2.5084634789056313e-10,4.171892835967128e-11,1.196996418783131e-10,2.5088087752292546e-10,4.177386695312197e-11,1.201891823781657e-10,2.506571606465441e-10,4.1941116629632225e-11,1.1947886206004433e-10,2.4917542564440006e-10,4.1581738004299286e-11,1.2106862208104896e-10,2.48195129389115e-10,4.061815793319538e-11
-2.7649882316980736e+19,-1.4184445874415581e+19,1.025732281243491e+19,9.942049353490255e+36,3.085677581491367e+17,4.1500079036559855e-10,2.3555133278291275e-10,-1.819558567531811e-10,4.1486137620883655e-10,2.356366752170511e-10,-1.8157698865868956e-10,4.1357169882989184e-10,2.3682966197075345e-10,-1.8074230855096802e-10,4.0987110506435834e-10,2.38724917088075e-10,-1.8045163332030523e-10,4.1859336197885883e-10,2.358652972855268e-10,-1.7943516057527087e-10
3.263837911968005e+19,-1.3858518394291114e+19,-1.6312624313870873e+19,9.942049353490255e+36,3.085677581491367e+17,-2.5328142445505317e-10,1.5657926557628663e-10,1.610609264586352e-10,-2.531511358673971e-10,1.5647473143928996e-10,1.609062649077686e-10,-2.5347591310986484e-10,1.567465256026709e-10,1.6018669230555842e-10,-2.53943158813334e-10,1.5716110917614322e-10,1.6095749450826363e-10,-2.5065106033015123e-10,1.6351394554544358e-10,1.702510784982753e-10
-6.121016664998626e+19,6.318253677119599e+19,2.031974786008481e+19,9.942049353490255e+36,3.085677581491367e+17,9.286818342607916e-11,-9.682127745694133e-11,-3.069671124758217e-11,9.280772883862773e-11,-9.675235692837305e-11,-3.066009684620222e-11,9.267507132525274e-11,-9.68807325800862e-11,-3.096390336884429e-11,9.294313405391013e-11,-9.714518261276601e-11,-3.114307349345986e-11,9.314698121406445e-11,-9.713027741337211e-11,-2.91958959496716e-11
4.108034937759243e+19,-1.2578930346906711e+20,2.8529633859740893e+19,9.942049353490255e+36,3.085677581491367e+17,-2.1885320430189166e-11,6.296162492663744e-11,-1.4656608210612047e-11,-2.189476654999866e-11,6.294491956896217e-11,-1.4654619667531507e-11,-2.1813960843491647e-11,6.302852703780572e-11,-1.4700730161495712e-11,-2.18069343614804e-11,6.292045573095485e-11,-1.475801150587711e-11,-2.15411260545427e-11,6.311137750239753e-11,-1.4683915702840422e-11
-1.5507592953784807e+19,-1.5877619979163126e+18,1.5316647407470833e+18,9.942049353490255e+36,3.085677581491367e+17,8.031873445158033e-10,2.749367639862693e-10,-2.7365611706519374e-10,8.032721737792311e-10,2.751349438425704e-10,-2.733371731305398e-10,8.002150063637173e-10,2.7265786063549613e-10,-2.741125002121252e-10,8.058343331162646e-10,2.707667711284522e-10,-2.760968868084264e-10,7.788485122629042e-10,2.573478359190523e-10,-2.759291116212603e-10
2.979457606495344e+19,4.248367725688942e+19,-5.97866774510621e+19,9.942049353490255e+36,3.085677581491367e+17,-5.627719825524575e-11,-1.0032511233726956e-10,1.2484987030904913e-10,-5.6330498833491e-11,-1.0037097163723447e-10,1.2486293167117659e-10,-5.6312324570046926e-11,-9.995692960370253e-11,1.2466301556844255e-10,-5.5852692357831983e-11,-9.948991646393995e-11,1.2408700144273793e-10,-5.460117675065222e-11,-9.8165514490905e-11,1.2779372435984314e-10
2.806082927913239e+19,3.941906306804393e+19,-1.2936196796995912e+19,9.942049353490255e+36,3.085677581491367e+17,-1.8353463084667236e-10,-2.846715909277892e-10,5.5571099823339706e-11,-1.8364191092590684e-10,-2.846935240896797e-10,5.562467495547345e-11,-1.8415000548634208e-10,-2.853356312553316e-10,5.569760079453675e-11,-1.848107252154281e-10,-2.873053570575892e-10,5.4550821459482575e-11,-1.8610060007896374e-10,-2.810262864292486e-10,5.370208523772646e-11
8.295156950203051e+19,-2.0347368796910408e+19,-9.185387192696166e+18,9.942049353490255e+36,3.085677581491367e+17,-1.3642326565191846e-10,5.46011766812131e-11,2.444126286131417e-11,-1.364071830492736e-10,5.462294209757175e-11,2.4416419584666827e-11,-1.3621151804623758e-10,5.459688783186983e-11,2.465500426720884e-11,-1.3616919949023584e-10,5.4188898845808383e-11,2.474730116135798e-11,-1.3742122433261533e-10,5.459354415681019e-11,2.4581382521169853e-11
-9.548724295039232e+18,1.9199904433097847e+19,-1.0722199487638922e+18,9.942049353490255e+36,3.085677581491367e+17,2.0810717780850976e-10,-5.177833977222947e-10,6.248966062884543e-11,2.0805359403672764e-10,-5.173716395918385e-10,6.235020221212557e-11,2.0710456688977396e-10,-5.165747842333934e-10,6.125948113362331e-11,2.0609946343311913e-10,-5.089807562080212e-10,5.693452030620384e-11,2.0671944166276804e-10,-5.220816655092248e-10,4.9567146735105746e-11
-5.1280193860993245e+19,-4.012122613396436e+18,-1.1387240782940547e+19,9.942049353490255e+36,3.085677581491367e+17,2.929188841580959e-10,2.4045393790245066e-11,9.122044533471025e-11,2.9285341027935163e-10,2.4003569513537334e-11,9.119785246053731e-11,2.9294469116445004e-10,2.413568436939139e-11,9.105416585200896e-11,2.9149666195515495e-10,2.4114780931725997e-11,9.143516334279797e-11,2.8769463873651347e-10,2.3292278271646172e-11,9.050335642362353e-11
-2.029313043162071e+19,2.1005259320854303e+19,-2.3034899611513658e+17,9.942049353490255e+36,3.085677581491367e+17,2.7710794208413926e-11,-3.2328767950313813e-10,-2.068010259425828e-10,2.7539627068733682e-11,-3.234516227834403e-10,-2.0692921572138224e-10,2.737987620488487e-11,-3.233080516569774e-10,-2.0803447359438334e-10,2.7607324030703673e-11,-3.254190641949835e-10,-2.0776983103276244e-10,2.556812228332731e-11,-3.217870848199993e-10,-2.0452982939008472e-10
-1.0735300831062244e+20,1.6841591167005434e+19,8.387080185410658e+18,9.942049353490255e+36,3.085677581491367e+17,9.41173014532883e-11,-1.6982383366436034e-11,-7.74401771527682e-12,9.406002353977051e-11,-1.7010113324874977e-11,-7.731814848807888e-12,9.394238509158537e-11,-1.697683171122015e-11,-7.747333573132777e-12,9.397205376406509e-11,-1.6946349930866054e-11,-7.602035410641382e-12,9.310436697257549e-11,-1.672163422563971e-11,-7.425950544575043e-12
2.127284644130003e+19,-6.341899665487514e+18,1.2555892133104253e+19,9.942049353490255e+36,3.085677581491367e+17,-4.0025737060420776e-10,2.2934651362354065e-10,-2.6151664780486083e-10,-4.0012299164258196e-10,2.2925752875973074e-10,-2.615877581384451e-10,-3.9994248165739057e-10,2.2898519457625807e-10,-2.616601108918564e-10,-4.001098534512857e-10,2.3421815788146215e-10,-2.5850840581250824e-10,-4.1030846751828726e-10,2.308767098010347e-10,-2.596602810289217e-10
-1.6007520777606013e+19,-1.0845908124925786e+19,-2.106416204489064e+19,9.942049353490255e+36,3.085677581491367e+17,3.262835355141591e-10,2.3107270142169772e-10,4.050035058276318e-10,3.263471067106973e-10,2.3080659693565204e-10,4.0466594489845783e-10,3.277450712681291e-10,2.301007842535658e-10,4.0498626472034344e-10,3.29383626340338e-10,2.3155207633135018e-10,3.980170952438523e-10,3.1966979700394684e-10,2.2964948234030043e-10,3.9666267627834904e-10
1.8566462812194265e+20,-7.13941380442094e+19,1.8043181257245622e+20,9.942049353490255e+36,3.085677581491367e+17,-1.2701407687142722e-11,4.7128636391346146e-12,-1.2156192726500118e-11,-1.2704844948319414e-11,4.7130838990863214e-12,-1.2162380579216972e-11,-1.2726082678568131e-11,4.710907025312164e-12,-1.2169486379829675e-11,-1.2704290198749201e-11,4.6927820430887845e-12,-1.2141223792261982e-11,-1.2763230417540362e-11,4.7034445809337626e-12,-1.2195700553967168e-11
-1.80331700022957e+19,-6.819674956381481e+19,-9.68527775678929e+18,9.942049353490255e+36,3.085677581491367e+17,5.667209306241875e-11,1.9475064993290953e-10,2.0605006603396917e-11,5.6632180014478557e-11,1.9470657736858315e-10,2.0588907224630488e-11,5.670824805334933e-11,1.943974652517682e-10,2.0633330116827417e-11,5.7315300080973534e-11,1.9405475240138282e-10,2.0768616779653647e-11,5.699743701212047e-11,1.9833591656248285e-10,2.2331667846908855e-11
-4.140964813028713e+19,-4.666071458697176e+19,6.47476135540016e+18,9.942049353490255e+36,3.085677581491367e+17,1.760448728027691e-10,2.044791723296205e-10,-1.2409602081429799e-11,1.7606589709653321e-10,2.044626057980278e-10,-1.242710814875494e-11,1.7615408719044623e-10,2.0455517591441666e-10,-1.2356707525269e-11,1.748049125418718e-10,2.026235328039111e-10,-1.3275268903450609e-11,1.7423047783491745e-10,2.0298163772197507e-10,-1.345602332986695e-11
-3.071614331499097e+18,-6.172048740777379e+18,2.282309512745896e+19,9.942049353490255e+36,3.085677581491367e+17,2.684009501339189e-11,3.092606887062703e-11,-3.227913062655892e-10,2.6867488793154506e-11,3.099914113768727e-11,-3.2274809373409865e-10,2.6715400150232808e-11,3.2524551904680545e-11,-3.233022916641653e-10,3.9588134404994056e-11,3.0700359522679256e-11,-3.15567680497386e-10,3.771533408920184e-11,2.7187588773786025e-11,-3.192170452364825e-10
-1.981137914715427e+18,2.240337440263233e+19,-3.119183431029773e+19,9.942049353490255e+36,3.085677581491367e+17,-2.5471650608928878e-11,-2.760343627487798e-10,3.9285923860974746e-10,-2.5477358822370036e-11,-2.7612856432270516e-10,3.929687090276887e-10,-2.4488373695799395e-11,-2.770063310036935e-10,3.933634394663728e-10,-2.8216877755405395e-11,-2.724603732078918e-10,3.952571646700975e-10,-3.148670115690855e-11,-2.638984603987349e-10,3.9269656131650817e-10
1.5178549245195606e+19,-1.1309691849496814e+19,-7.927099666288873e+19,9.942049353490255e+36,3.085677581491367e+17,-2.775806333612676e-11,2.108684695065479e-11,1.5497510106456083e-10,-2.7740600582043263e-11,2.1120136226173848e-11,1.549876523050728e-10,-2.780261807584338e-11,2.104380192904769e-11,1.5485091105393233e-10,-2.712170563606317e-11,2.1538038318572052e-11,1.5487541011336555e-10,-2.605086832519646e-11,2.1208197407070617e-11,1.5558771277555195e-10
7.340695124402188e+19,1.2426665209092307e+20,1.3454064799850858e+20,9.942049353490255e+36,3.085677581491367e+17,-1.2612656459860071e-11,-2.086148214193055e-11,-2.2007486979818503e-11,-1.2605953637703418e-11,-2.0861474725934656e-11,-2.201048637229716e-11,-1.2595697446737624e-11,-2.082125478909611e-11,-2.1959987363459613e-11,-1.2592970652175835e-11,-2.09198139800172e-11,-2.198059112482286e-11,-1.2723591400172198e-11,-2.088391540254151e-11,-2.2008692587195737e-11
1.7135534104034484e+19,1.518390182931066e+19,6.60103915312623e+18,9.942049353490255e+36,3.085677581491367e+17,-1.996675222578715e-10,-1.2077158441743323e-10,-6.339345721470931e-10,-1.9954386177521924e-10,-1.203323608672892e-10,-6.33792605185557e-10,-1.9771509280096858e-10,-1.1945148769378261e-10,-6.358276818028908e-10,-1.941232815161319e-10,-1.1591668792411387e-10,-6.393486350392494e-10,-1.9363668012120816e-10,-1.0950734603706848e-10,-6.456177805484679e-10
4.771403542063984e+18,-2.1259599603619707e+18,1.8677581711841976e+19,9.942049353490255e+36,3.085677581491367e+17,-9.025056484820129e-11,-2.8825088320577592e-11,-4.024434446101489e-10,-9.012305895253462e-11,-2.8688993672254263e-11,-4.023715632527508e-10,-8.894010296549925e-11,-2.796228105902861e-11,-4.017834619097684e-10,-9.177259749355515e-11,-2.5913068424180946e-11,-4.0292058994754903e-10,-7.970269571368815e-11,-3.11729978649719e-11,-3.9682761473688893e-10
-2.905851964217783e+19,8.534334413170257e+18,-7.888650434528976e+18,9.942049353490255e+36,3.085677581491367e+17,4.5299214227238883e-10,-1.5963612423374887e-10,1.2630128304866416e-10,4.5284649099200304e-10,-1.5961011007532734e-10,1.2635580019243276e-10,4.529618474263262e-10,-1.6093233354019762e-10,1.2691648364524876e-10,4.492646298532849e-10,-1.5856372812491092e-10,1.2369241984580641e-10,4.421266218730297e-10,-1.5435797970121892e-10,1.2178262678697144e-10
-3.8671078855630864e+19,3.4971085756190618e+19,-4.037509392544352e+19,9.942049353490255e+36,3.085677581491367e+17,1.0974851073125478e-10,-1.2531660665115227e-10,1.348086410045555e-10,1.0988033884562929e-10,-1.2531363561620392e-10,1.3469364520148032e-10,1.0990667088031053e-10,-1.2496584779050037e-10,1.350485426144371e-10,1.1040370470154189e-10,-1.2485868573219611e-10,1.3622103080975978e-10,1.1126987539910911e-10,-1.2463540216037695e-10,1.355080725138848e-10
-5.629319312421848e+18,2.483470367052328e+19,3.4554455625260155e+19,9.942049353490255e+36,3.085677581491367e+17,3.411615317553529e-11,-2.2974512311561652e-10,-3.157111036394559e-10,3.3993525279480505e-11,-2.297864360403794e-10,-3.1553775454685134e-10,3.4066709118165405e-11,-2.2978952582739764e-10,-3.1449708809804745e-10,3.220199916896289e-11,-2.3111932062657747e-10,-3.1775236404695466e-10,3.0780714085120453e-11,-2.3807222305061403e-10,-3.165872384548323e-10
-9.797139556586002e+18,1.9392700709040947e+19,9.005063862427208e+18,9.942049353490255e+36,3.085677581491367e+17,2.435926819572409e-10,-4.950107921965941e-10,-2.6849546922079745e-10,2.433654870816385e-10,-4.950932749674066e-10,-2.68336447860992e-10,2.4185623919716185e-10,-4.94811270944411e-10,-2.6951859546527417e-10,2.375283175532701e-10,-4.937465121034931e-10,-2.665511120821153e-10,2.2959867903910171e-10,-4.658489516890776e-10,-2.46705760208691e-10
-2.021681506772573e+19,3.8556368407836656e+19,1.545058015165874e+19,9.942049353490255e+36,3.085677581491367e+17,1.512661101577976e-10,-3.023667331550899e-10,-9.95537388378054e-11,1.5133023317163267e-10,-3.0227101104946776e-10,-9.963721719093002e-11,1.5138014321472188e-10,-3.0143739877637973e-10,-9.906183948403338e-11,1.5050120345010899e-10,-3.026066887295894e-10,-9.908603585934809e-11,1.4657807947767673e-10,-3.010341840129041e-10,-9.657615306143826e-11
1.8657596024136487e+19,6.168126716251283e+17,8.315239858995305e+19,9.942049353490255e+36,3.085677581491367e+17,-3.267006558743955e-11,-2.318604160850645e-12,-1.5141732278929613e-10,-3.2728123009456247e-11,-2.319998776391299e-12,-1.5143116445811474e-10,-3.2587456669913434e-11,-2.372332387949554e-12,-1.509874643958356e-10,-3.282851267470321e-11,-2.247610861183749e-12,-1.5045490431184675e-10,-3.316922033325363e-11,-2.5049128110140747e-12,-1.5030072101846956e-10
-5.861865582650246e+18,-6.543813695390564e+18,-9.413882987581493e+18,9.942049353490255e+36,3.085677581491367e+17,1.7341708637217293e-10,1.5767940683591789e-10,4.057075823571533e-10,1.7382907893677479e-10,1.577919256095878e-10,4.054662064000222e-10,1.7332493609486237e-10,1.5372028608949684e-10,4.0901673996786326e-10,1.660767785569746e-10,1.499934516978629e-10,4.2354428634888955e-10,1.6113485012189063e-10,1.5453780075821592e-10,4.227399132721267e-10
5.109767678143531e+18,2.5070677727543366e+19,-5.817472011541051e+19,9.942049353490255e+36,3.085677581491367e+17,-1.5867028001994897e-11,-8.805791310860186e-11,2.0805747259529895e-10,-1.5818078090765348e-11,-8.814053188917396e-11,2.0808526913297324e-10,-1.6012402780431694e-11,-8.781621991617136e-11,2.0821960675346284e-10,-1.6438431170518442e-11,-8.763412643791268e-11,2.058224238380929e-10,-1.723028961774188e-11,-8.579254111871228e-11,2.070566080495485e-10
-1.0986975322921116e+20,-1.3084957690519626e+19,6.644099534261267e+19,9.942049353490255e+36,3.085677581491367e+17,6.419010709953656e-11,7.433551879927392e-12,-3.771291923657499e-11,6.420689781629996e-11,7.425630173138935e-12,-3.771265515925293e-11,6.430678229392441e-11,7.454071394025839e-12,-3.7690474860063456e-11,6.410138281003617e-11,7.60770420155261e-12,-3.7840848592509615e-11,6.39766470693083e-11,7.59747621448813e-12,-3.7654225911272824e-11
5.4508994376535014e+17,4.592567671889632e+19,-3.3958633425297576e+19,9.942049353490255e+36,3.085677581491367e+17,7.983334314790921e-13,-2.022991488883403e-10,1.6046483060151955e-10,7.873512703858522e-13,-2.0239798793344248e-10,1.6054569854278864e-10,6.449909776192886e-13,-2.0204594977367774e-10,1.6104853483731194e-10,-2.502221902964176e-13,-1.987640550464407e-10,1.599581124361695e-10,6.599175794242762e-13,-1.9936512913600607e-10,1.589769274342668e-10
-3.799712167840667e+18,1.566273587692012e+19,3.510968578030154e+19,9.942049353490255e+36,3.085677581491367e+17,3.0018265736457495e-11,-1.483624078647171e-10,-3.9209529184497e-10,2.99439861630269e-11,-1.4846503675191192e-10,-3.9211591099832755e-10,3.055665836760916e-11,-1.486143570051966e-10,-3.919419966775535e-10,2.8303994078925374e-11,-1.4841464360212036e-10,-3.9363120621207107e-10,2.508334798397994e-11,-1.4925583004997618e-10,-3.9793778444889446e-10
-1.385639261253082e+20,-7.856372013392106e+19,-2.2017626057891103e+20,9.942049353490255e+36,3.085677581491367e+17,8.758525195945213e-12,4.9050306235782556e-12,1.4192758861399054e-11,8.75982370592536e-12,4.9036118112992005e-12,1.4197085418224208e-11,8.778033393922344e-12,4.900180239595444e-12,1.4213559119623062e-11,8.782115348846798e-12,4.918171763625412e-12,1.4177107197325842e-11,8.761575918378865e-12,4.892956414000755e-12,1.4167389977503686e-11
-2.1640008449513476e+19,3.829875300532912e+19,-5.956667595385869e+19,9.942049353490255e+36,3.085677581491367e+17,5.5635322244458226e-11,-9.848066115699904e-11,1.4462758013338936e-10,5.571975675027855e-11,-9.854969568442481e-11,1.4464843714206114e-10,5.547229550978647e-11,-9.828234348861858e-11,1.448431234131441e-10,5.4171011595496966e-11,-9.759962567422027e-11,1.448812144797667e-10,5.48542101110608e-11,-9.821367876163481e-11,1.4534232165963079e-10
1.4462481079208095e+20,2.244371062620465e+20,2.7632237710821253e+19,9.942049353490255e+36,3.085677581491367e+17,-9.633823965743416e-12,-1.5101283751239838e-11,-1.6775664012423146e-12,-9.633337226527993e-12,-1.5104168146340807e-11,-1.679430525341248e-12,-9.63030688721843e-12,-1.5113678983514427e-11,-1.6928837419252524e-12,-9.640008252715623e-12,-1.5070343981610984e-11,-1.6844491605142213e-12,-9.654464058450545e-12,-1.5132464127985815e-11,-1.6660829855015842e-12
-1.4679745653079124e+19,-3.9097192700145025e+19,-7.962345187453429e+18,9.942049353490255e+36,3.085677581491367e+17,1.2485842535377345e-10,3.5748558859331896e-10,4.722660452410166e-11,1.249094476422118e-10,3.5747284839933297e-10,4.7298959724413814e-11,1.255134424778643e-10,3.578654407771076e-10,4.769105749260521e-11,1.2481117648662057e-10,3.5656703105817276e-10,4.9952483620942654e-11,1.291929351807435e-10,3.5432325169609474e-10,5.287497495787758e-11
-1.4305097033254187e+19,-1.7082036154842819e+19,5.125966113202906e+19,9.942049353490255e+36,3.085677581491367e+17,5.866612823604987e-11,7.266281954612517e-11,-2.85408903195299e-10,5.872432271665962e-11,7.275066390074652e-11,-2.8541342978231933e-10,5.881201143388536e-11,7.352149023337863e-11,-2.851498610896584e-10,5.94750626626035e-11,7.259690847274658e-11,-2.850347650729968e-10,5.915965403735003e-11,7.174830413330677e-11,-2.854942314569443e-10
1.212197484668667e+20,-1.903090221875338e+19,-4.439375777460354e+19,9.942049353490255e+36,3.085677581491367e+17,-7.625923523545304e-11,2.535783578037782e-13,3.252228473582421e-11,-7.624169834207543e-11,2.4730617657607416e-13,3.252279338364727e-11,-7.62601283380017e-11,2.552720505538839e-13,3.251296167161602e-11,-7.631563493609202e-11,3.904294520154779e-13,3.266166480080409e-11,-7.620327531074015e-11,3.68969707006915e-13,3.259216019644095e-11
2.0506785005885284e+19,2.4875023434824204e+19,-2.5502711336048845e+19,9.942049353490255e+36,3.085677581491367e+17,-2.1670495631066676e-10,-2.3931540797375996e-10,2.4524494869479585e-10,-2.167206324608505e-10,-2.392908491569107e-10,2.452702963132041e-10,-2.1743522001627194e-10,-2.391580024316991e-10,2.463546661608973e-10,-2.161193389070909e-10,-2.383874103611448e-10,2.475269763383457e-10,-2.137186082631609e-10,-2.416020750286567e-10,2.4917413130171094e-10
7.915449497761656e+19,-7.751121007836149e+19,1.419868037613659e+19,9.942049353490255e+36,3.085677581491367e+17,-6.63493032904219e-11,6.447366676264316e-11,-1.136069728411654e-11,-6.629707800311601e-11,6.442955211636517e-11,-1.1341235747458608e-11,-6.628389047108435e-11,6.443223385951344e-11,-1.1320656798854079e-11,-6.617541971086645e-11,6.444209704051398e-11,-1.1437700523443352e-11,-6.60093004419895e-11,6.399016439676767e-11,-1.1830959008385853e-11
1.6008770981065957e+19,-2.3056203669517005e+19,-7.205374165690363e+18,9.942049353490255e+36,3.085677581491367e+17,-3.201326869413365e-10,4.005502480028838e-10,1.5217705769211074e-10,-3.202103887391323e-10,4.0046127739411497e-10,1.5216251999594798e-10,-3.1985656043389025e-10,3.987367878776385e-10,1.487448015407838e-10,-3.2140520177337706e-10,4.035465245534296e-10,1.4699479808721647e-10,-3.229547290064258e-10,4.059444422254298e-10,1.4306750330946852e-10
5.832739471909242e+19,-1.088101078270863e+19,-1.4659584591634854e+19,9.942049353490255e+36,3.085677581491367e+17,-2.315172535971748e-10,3.4597443491702864e-11,6.022602543915522e-11,-2.3156164488259106e-10,3.461123876920761e-11,6.024579751764793e-11,-2.3155877175879797e-10,3.463391537834714e-11,5.99895147112332e-11,-2.2993779014658265e-10,3.154713289946025e-11,6.031517650711056e-11,-2.3101636622116517e-10,3.3069706689018994e-11,5.865614587688977e-11
-8.792571218239965e+18,-2.9537167712731587e+18,1.2198131424435239e+19,9.942049353490255e+36,3.085677581491367e+17,2.079235906149823e-10,1.0224504008275098e-10,-3.9390257616361073e-10,2.0795370270480976e-10,1.0219982121281271e-10,-3.938974701274899e-10,2.1086272110273937e-10,1.0500774951101734e-10,-3.955268216354895e-10,1.9758728747274944e-10,1.0124753519637748e-10,-3.9001477706080387e-10,1.9270266424774615e-10,9.878208454294942e-11,-3.6831595480329236e-10
-5.9147109244319834e+19,1.50369187728242e+20,-6.494957474322239e+19,9.942049353490255e+36,3.085677581491367e+17,1.4501352029987777e-11,-3.626923753754471e-11,1.461066833376262e-11,1.4504313577305342e-11,-3.6274392980557175e-11,1.459567535165638e-11,1.4523550790140125e-11,-3.629297252383522e-11,1.4644306787443022e-11,1.4566872575200403e-11,-3.626677817128701e-11,1.462617265534046e-11,1.4522751711976746e-11,-3.635916608047413e-11,1.4535612219801091e-11
-1.6475714849072048e+19,2.050837310327515e+18,1.7264528619665876e+18,9.942049353490255e+36,3.085677581491367e+17,6.355328941098949e-10,-1.2453504776375021e-10,-3.2184685151288654e-11,6.355245782495906e-10,-1.244540157026815e-10,-3.182289858957352e-11,6.298980271091068e-10,-1.2157428602498794e-10,-3.260051274397542e-11,6.207895197591163e-10,-1.2898710332740403e-10,-2.819827629365156e-11,5.58591259972439e-10,-6.951951322676105e-11,2.3537022175500765e-11
-5.273327916641323e+18,3.6553264233489613e+19,-9.076826228044881e+18,9.942049353490255e+36,3.085677581491367e+17,7.144588513732116e-11,-4.241854262738513e-10,1.0238313065767639e-10,7.156951371249944e-11,-4.244617026349503e-10,1.0243419062238066e-10,7.178539921492041e-11,-4.250618075925385e-10,1.0066500835193945e-10,7.442642161851877e-11,-4.2936878894104025e-10,1.0283741604664403e-10,6.731439587519026e-11,-4.306561427526473e-10,9.730017044515088e-11
7.343874779802246e+19,5.8513349797589975e+19,4.3877319759145755e+19,9.942049353490255e+36,3.085677581491367e+17,-7.789500588447188e-11,-6.024210610058231e-11,-5.039264163001993e-11,-7.787807863004456e-11,-6.023456959857952e-11,-5.03713116484722e-11,-7.784790121783891e-11,-6.017389490157685e-11,-5.048053509386683e-11,-7.807235544720729e-11,-6.058381004688402e-11,-5.044560811660762e-11,-7.584980540125169e-11,-6.039609568149032e-11,-5.0583881865193406e-11
8.085811615701985e+18,1.2639788387901385e+19,-2.6657143570093396e+19,9.942049353490255e+36,3.085677581491367e+17,-1.3046241771390035e-10,-1.8429909928059388e-10,4.0283939235988223e-10,-1.3067808198355115e-10,-1.8423654593967425e-10,4.0286282092983987e-10,-1.3189618373904137e-10,-1.835010682031374e-10,4.0399493071198145e-10,-1.2888129932866208e-10,-1.855268627434372e-10,4.032280964338006e-10,-1.3312816087216407e-10,-1.7551667053342257e-10,4.0657812541273953e-10
-8.009215570234055e+18,1.130788965768432e+19,-2.2662195833333166e+19,9.942049353490255e+36,3.085677581491367e+17,1.8390032063691194e-10,-2.6712834112666697e-10,4.5692530818115767e-10,1.8399728914487046e-10,-2.673958740551239e-10,4.5697651447120023e-10,1.8388495741191754e-10,-2.6832813500851335e-10,4.5538571950086927e-10,1.89384640707014e-10,-2.770990177122356e-10,4.5272357922373756e-10,1.777453038305995e-10,-2.69234979761697e-10,4.4759448614884057e-10
2.8299492440760635e+19,-2.3868842330237243e+19,8.081049212978745e+19,9.942049353490255e+36,3.085677581491367e+17,-4.648750191238967e-11,3.951090234908915e-11,-1.2856823974093716e-10,-4.6500566620342315e-11,3.9540172782905643e-11,-1.2856865035024457e-10,-4.642073195502363e-11,3.956417790089847e-11,-1.2846958321468702e-10,-4.6517375338101036e-11,3.924926894630664e-11,-1.2849956966098338e-10,-4.628021417947727e-11,3.8476776022040227e-11,-1.2989119532980562e-10
-9.116669853579715e+17,-1.8691547821352686e+19,1.5540542368644764e+19,9.942049353490255e+36,3.085677581491367e+17,1.255803964579073e-10,3.536087841823804e-10,-4.353350336860001e-10,1.259959186973324e-10,3.5366380383955477e-10,-4.35334317909649e-10,1.270491227057223e-10,3.5305840258491426e-10,-4.3476991999350745e-10,1.2466473647812167e-10,3.504557566259172e-10,-4.3564768624934766e-10,6.185666386764802e-11,3.766462428463275e-10,-3.7760433534197807e-10
2.105758571507673e+18,-1.4485541698751752e+20,-3.3666357027925026e+20,9.942049353490255e+36,3.085677581491367e+17,-5.615551302330723e-14,3.759482323592078e-12,8.894283870587245e-12,-5.643842062181391e-14,3.7594160330977766e-12,8.895102587332527e-12,-5.768836142166187e-14,3.768121554832612e-12,8.897581507524517e-12,-4.387523388637799e-14,3.749789942705263e-12,8.900223359451575e-12,-5.122901539049606e-14,3.760568012950619e-12,8.912152173296021e-12
-2.6576842934164234e+19,-9.150698529169913e+18,-1.21143072264656e+20,9.942049353490255e+36,3.085677581491367e+17,1.5813931413690113e-11,5.3689031347638445e-12,7.536976417085851e-11,1.5797189701008646e-11,5.3841469088218696e-12,7.53711668850964e-11,1.5721059870090706e-11,5.387753590771601e-12,7.526743475932038e-11,1.578368897735406e-11,5.384884782223764e-12,7.550578993913244e-11,1.5660421117406822e-11,5.420106794084492e-12,7.516479347425712e-11
-1.0801561777034435e+19,8.283043154777929e+18,-1.3296517818516541e+19,9.942049353490255e+36,3.085677581491367e+17,2.7144444898037956e-10,-1.887246441260224e-10,4.988308268916409e-10,2.7151331248245777e-10,-1.8839843179741684e-10,4.984784086636554e-10,2.729813369896787e-10,-1.882982391007569e-10,4.99253935194149e-10,2.777270665664416e-10,-1.9069347665793293e-10,5.007274622981377e-10,2.2628402364600616e-10,-1.9230257765607309e-10,4.825289853841585e-10
2.783532247946481e+19,6.197920983102981e+18,-5.191975059730001e+16,9.942049353490255e+36,3.085677581491367e+17,-5.553871276845792e-10,-6.495751150069958e-11,-4.916056143448441e-11,-5.549355185633391e-10,-6.496464918459934e-11,-4.913873321154121e-11,-5.550200091214113e-10,-6.636108089168202e-11,-4.979328252866921e-11,-5.460990540319725e-10,-5.997246655288796e-11,-4.7363400909443295e-11,-5.529683705612259e-10,-5.6795695661277724e-11,-4.848726208634073e-11
-6.173301401534984e+18,-4.245201497518056e+18,4.004308846367032e+18,9.942049353490255e+36,3.085677581491367e+17,1.2957826888462444e-10,1.3653414157951974e-10,-3.124412844471633e-10,1.3040656182652235e-10,1.3616096244980262e-10,-3.1254507219878786e-10,1.29686113592477e-10,1.3919596818327142e-10,-3.138561213573457e-10,1.3563900198256584e-10,1.2883267000938205e-10,-3.22748795114981e-10,1.2256418639925613e-10,1.4427855348173598e-10,-2.9914393162901046e-10
1.1263256619301753e+19,-2.46799592107452e+19,-6.127261689099993e+19,9.942049353490255e+36,3.085677581491367e+17,-3.1350031813242515e-11,8.23495613715034e-11,2.1553104595780645e-10,-3.139055288144554e-11,8.237232300206372e-11,2.15596389812688e-10,-3.132114858977452e-11,8.229483979507466e-11,2.1559840455085252e-10,-3.1990573323910375e-11,8.21507289151923e-11,2.1497423795757692e-10,-3.1599593084034394e-11,8.069105878530327e-11,2.1558887199777762e-10
-1.4753217794309878e+19,-1.45351148833682e+20,-4.140700377712268e+19,9.942049353490255e+36,3.085677581491367e+17,5.475289763521439e-12,5.283729907637955e-11,1.578352048216063e-11,5.475019122850819e-12,5.2838153320363105e-11,1.5796166147998208e-11,5.5223777604455585e-12,5.28025377205445e-11,1.5765967030117122e-11,5.617409187058235e-12,5.2730880620661026e-11,1.5725494980523235e-11,5.313604850038539e-12,5.309538961755588e-11,1.5818231333791517e-11
2.3934100241602363e+19,9.808953794042124e+18,3.9585989057184555e+19,9.942049353490255e+36,3.085677581491367e+17,-1.690203853303667e-10,-1.2745465953329905e-10,-2.4826995587110335e-10,-1.6890733786951744e-10,-1.2747817293769565e-10,-2.4817031406208197e-10,-1.6928581046736184e-10,-1.2712219853899506e-10,-2.4784153161229504e-10,-1.6734694017513958e-10,-1.2605908160621077e-10,-2.470232138398168e-10,-1.708501150577058e-10,-1.2211535777463039e-10,-2.414009782318136e-10
1.370522975876444e+19,-5.363084802644718e+19,4.10117230099458e+19,9.942049353490255e+36,3.085677581491367e+17,-6.610378291684311e-11,1.628077956916853e-10,-1.199208644482524e-10,-6.610212438496546e-11,1.6282238122318813e-10,-1.1992250710286075e-10,-6.597046974993948e-11,1.6269213372824205e-10,-1.1995775358835615e-10,-6.559014764304379e-11,1.6228717985372685e-10,-1.1962167649040486e-10,-6.464854149136564e-11,1.6474634304098596e-10,-1.2049268864809765e-10
-5.807214640275119e+18,-2.3640776642375613e+18,3.72197599715068e+19,9.942049353490255e+36,3.085677581491367e+17,7.302236844430044e-11,2.476881274526463e-12,-4.143953616751678e-10,7.296890824020691e-11,2.445744991986893e-12,-4.1462047341285424e-10,7.213125417323724e-11,2.551025280739048e-12,-4.1454667521250906e-10,6.963967956889153e-11,3.6289776540076404e-12,-4.1291098598297105e-10,6.095775273246052e-11,-2.3137455845017685e-12,-4.0520405719873243e-10
-1.322109867728479e+18,1.896960950081555e+19,3.097632225302086e+19,9.942049353490255e+36,3.085677581491367e+17,-2.619004318120102e-11,-2.3123265654523597e-10,-3.6121909300285624e-10,-2.630752024547547e-11,-2.3128909472155388e-10,-3.6123313451687e-10,-2.494604268051769e-11,-2.3114795287517294e-10,-3.6014365101784345e-10,-2.5816818069791515e-11,-2.3095970450137687e-10,-3.61576213023502e-10,-2.968697142890904e-11,-2.334458124657583e-10,-3.6404244379388014e-10
-7.181533118949259e+18,-2.5823146032683864e+19,8.697109851373212e+18,9.942049353490255e+36,3.085677581491367e+17,1.992455510364748e-10,3.442886823229499e-10,-8.927597455513961e-11,1.9947375770411702e-10,3.441746396273771e-10,-8.911376345984963e-11,2.0318884031507426e-10,3.454444589055148e-10,-8.971110109053922e-11,2.0238192041906174e-10,3.4428448960613337e-10,-9.777665918733662e-11,2.0248577993890647e-10,3.510539683874635e-10,-9.704808684407775e-11
-1.5850312771066577e+19,-1.2589560745723525e+19,2.310638352107673e+18,9.942049353490255e+36,3.085677581491367e+17,8.268365700781821e-10,5.271127896840295e-10,-2.816671109872771e-10,8.267963882358067e-10,5.26868779554078e-10,-2.817227363097416e-10,8.294545296703062e-10,5.250052309646116e-10,-2.7865273749223345e-10,8.281223357041832e-10,5.212374927590229e-10,-2.7681411100206113e-10,8.258738418816357e-10,5.186047813584755e-10,-2.770756208398917e-10
8.935076549317398e+19,4.862479166403421e+19,1.2277254291009811e+20,9.942049353490255e+36,3.085677581491367e+17,-2.7470426876957977e-11,-1.5915817113229598e-11,-3.75064623457867e-11,-2.7468599592622437e-11,-1.591507653733492e-11,-3.751013951621009e-11,-2.7358530063483247e-11,-1.5916424920416946e-11,-3.741035653236935e-11,-2.7301389265599952e-11,-1.6007053554433176e-11,-3.736333636208377e-11,-2.759069956932236e-11,-1.6177384663675616e-11,-3.7689575191939786e-11
9.41000619297462e+18,1.5413958839164625e+19,1.2170061187034853e+19,9.942049353490255e+36,3.085677581491367e+17,-2.6856984542563175e-10,-3.348910309493521e-10,-3.720917262363574e-10,-2.68683204906119e-10,-3.348511633481261e-10,-3.7193079756300465e-10,-2.678937604833503e-10,-3.3477502132497455e-10,-3.717998129118349e-10,-2.7000187573233534e-10,-3.34141664471957e-10,-3.710265521435471e-10,-2.765965793035046e-10,-3.333748566756457e-10,-3.813743334389043e-10
1.9562995423455846e+18,1.1580221290769398e+19,8.381616138894844e+18,9.942049353490255e+36,3.085677581491367e+17,-1.791786968372931e-10,-4.2438250794439187e-10,-4.114138320883787e-10,-1.790851485051639e-10,-4.2435577183354116e-10,-4.111859462814119e-10,-1.785785022427932e-10,-4.241541704381925e-10,-4.092121120116193e-10,-1.865583617816309e-10,-4.2172380062104275e-10,-4.157254078306131e-10,-1.742155227213207e-10,-4.2812356160391753e-10,-4.114872348606841e-10
-2.431980312822964e+19,2.798391295790652e+19,-1.1466537225804933e+19,9.942049353490255e+36,3.085677581491367e+17,2.605699187495963e-10,-3.423333144425463e-10,1.751430090344216e-10,2.606340081215462e-10,-3.42340533179574e-10,1.7505898026850652e-10,2.600569654911587e-10,-3.4112721265338656e-10,1.7428044529739041e-10,2.6272195290156616e-10,-3.4363234663690935e-10,1.748069916005263e-10,2.628173449476219e-10,-3.420217639517456e-10,1.747728276506567e-10
-9.815456419279165e+17,1.191949940031174e+19,1.6558392232919122e+19,9.942049353490255e+36,3.085677581491367e+17,-1.3352402128582353e-10,-4.70226564315346e-10,-4.895431254618919e-10,-1.3342679612631517e-10,-4.702619503431795e-10,-4.896601483092887e-10,-1.343534568582296e-10,-4.68188187419504e-10,-4.899029749318381e-10,-1.2971957097315404e-10,-4.636961287456729e-10,-4.949622363179051e-10,-1.3581931162780302e-10,-4.405645878569814e-10,-4.944944152305174e-10
1.4179707220638642e+19,-1.4894020589395194e+19,7.805505635599693e+17,9.942049353490255e+36,3.085677581491367e+17,-2.4406330728049985e-10,3.793856130456632e-10,1.6773569018115696e-10,-2.4422134652105715e-10,3.795856985714369e-10,1.676684523299334e-10,-2.437269570811534e-10,3.7996076760984876e-10,1.6798809007008753e-10,-2.5234966996720936e-10,3.682247999923464e-10,1.716614458381402e-10,-2.499567600653134e-10,3.6690051996139603e-10,1.7221371947943257e-10
4.851732005964988e+19,1.1109982676667642e+19,3.670664973284012e+19,9.942049353490255e+36,3.085677581491367e+17,-2.072172352575226e-10,-3.2046336920780907e-11,-1.4056317797169808e-10,-2.0716207380146187e-10,-3.209185702879824e-11,-1.4060700704022065e-10,-2.0713527256811254e-10,-3.199229405983806e-11,-1.4081025127292206e-10,-2.0561295482030053e-10,-3.085920825988666e-11,-1.4043209270135607e-10,-2.058616607525711e-10,-2.898902924588381e-11,-1.4025444450798308e-10
-8.936865555143064e+18,1.031916756955852e+19,1.7677023854579835e+18,9.942049353490255e+36,3.085677581491367e+17,6.533492392617595e-11,-5.899982840443244e-10,-1.4920354812584293e-10,6.540358300207225e-11,-5.894728069647748e-10,-1.4878703450326627e-10,6.406733340578223e-11,-5.886661320583341e-10,-1.4905337081396605e-10,5.377636335615582e-11,-5.905312560352973e-10,-1.495139279297396e-10,4.685131475775484e-11,-6.035960056292006e-10,-1.4375481008901026e-10
-9.081547442448799e+17,3.1750627496400753e+19,4.767730684958675e+19,9.942049353490255e+36,3.085677581491367e+17,-6.807955863519435e-12,-1.6711535992693958e-10,-2.4909329544009406e-10,-6.786251104511749e-12,-1.670365289851405e-10,-2.4908214845537146e-10,-6.951711764019515e-12,-1.6766865403409645e-10,-2.4917097633692056e-10,-7.319818887631295e-12,-1.6726795994353145e-10,-2.48615196978743e-10,-6.237277802971199e-12,-1.6465403724368045e-10,-2.4780007873200544e-10
-5.685650650514979e+19,-5.986818465488052e+18,-7.856113377247326e+18,9.942049353490255e+36,3.085677581491367e+17,2.8590002951237304e-10,3.3240269716372364e-11,4.404050001467813e-11,2.858313623554825e-10,3.3170317842674095e-11,4.4064090462648795e-11,2.857993812928167e-10,3.304907765169855e-11,4.414522630179222e-11,2.842352171282644e-10,3.2271941808716304e-11,4.410148683320298e-11,2.829550781719402e-10,3.262810471860197e-11,4.5336397312243804e-11
2.4585150207221596e+19,6.893638362551132e+19,8.927534859522538e+19,9.942049353490255e+36,3.085677581491367e+17,-1.908387796904389e-11,-5.457940836925707e-11,-6.856542070390372e-11,-1.9087475935675375e-11,-5.458664005455519e-11,-6.856175205733412e-11,-1.9167217758722275e-11,-5.4582095680012097e-11,-6.846136990285744e-11,-1.9367194159097256e-11,-5.4478013111931675e-11,-6.770622004728226e-11,-1.914485987894518e-11,-5.418820158418389e-11,-6.731681346249136e-11
4.464701717414534e+19,-5.61110283238666e+18,-5.928609701641805e+18,9.942049353490255e+36,3.085677581491367e+17,-3.589008276115548e-10,4.564279361364364e-11,4.9963276866331774e-11,-3.589009892376177e-10,4.562300954763673e-11,5.0068178586328634e-11,-3.5940890939824845e-10,4.59194859842869e-11,5.0113741529656215e-11,-3.589898256576752e-10,4.6942083140382834e-11,4.821954155818385e-11,-3.519217988745162e-10,4.556974845593077e-11,4.519389582488154e-11
1.3659476099961498e+19,-2.4494254979678932e+20,-4.3486395026305114e+19,9.942049353490255e+36,3.085677581491367e+17,-1.0947097991952924e-12,2.066250948295534e-11,3.792636481239777e-12,-1.0921513866473124e-12,2.0661209255871058e-11,3.792029518463896e-12,-1.082354042204886e-12,2.0653413288347875e-11,3.789930006235189e-12,-1.0960466588501898e-12,2.064879644156953e-11,3.798768760366282e-12,-1.0794458290788517e-12,2.0551038954591944e-11,3.79602777392716e-12
-3.2183300103811854e+19,-2.409819170635423e+19,4.346976085029148e+19,9.942049353490255e+36,3.085677581491367e+17,1.7030523810419403e-10,1.1127236878583222e-10,-2.0348275425344468e-10,1.703535048981433e-10,1.113224950297656e-10,-2.034088975381197e-10,1.701378684956504e-10,1.1110429556934927e-10,-2.0325823789452954e-10,1.7012199514725797e-10,1.116962359380759e-10,-2.0363017459656055e-10,1.7312297974563838e-10,1.1143240677035385e-10,-2.038265388562691e-10
1.498848092372017e+19,2.2442278183688155e+19,7.934629602651257e+18,9.942049353490255e+36,3.085677581491367e+17,-2.5710285175080583e-10,-5.484016488110551e-10,-1.703418327295382e-10,-2.572255350417718e-10,-5.482468044736302e-10,-1.703898723622011e-10,-2.5569920558476415e-10,-5.473010893289037e-10,-1.6926962751846962e-10,-2.5849200032670167e-10,-5.44286852213708e-10,-1.6961266746243792e-10,-2.623675078190819e-10,-5.248546286341831e-10,-1.8319644891526898e-10
-9.281484557204448e+17,-4.4198809544684134e+18,-4.5186600821603773e+18,9.942049353490255e+36,3.085677581491367e+17,-3.568382971410249e-10,1.6122081702769255e-10,3.615624186431919e-10,-3.56598100876854e-10,1.6127467626946617e-10,3.614674561775355e-10,-3.586370723950304e-10,1.6197662886374519e-10,3.6094364075163176e-10,-3.602827793835358e-10,1.5010774255115095e-10,3.725343529386818e-10,-3.7614153837102297e-10,1.7066202039575974e-10,3.7807816351840826e-10
-5.307275820545617e+19,3.0319678572071625e+19,2.861104445789855e+19,9.942049353490255e+36,3.085677581491367e+17,1.821287695082177e-10,-1.0300968466482425e-10,-9.43561129783672e-11,1.820600211950266e-10,-1.0306336753311031e-10,-9.423986058866006e-11,1.8183857666303951e-10,-1.0303925940382365e-10,-9.42568088060961e-11,1.8069063965825564e-10,-1.038299353816593e-10,-9.475585820271919e-11,1.8234532800017134e-10,-1.0451249501605089e-10,-9.436951193021342e-11
1.0867816413965804e+19,-1.7316393407600073e+19,-4.267881463738789e+18,9.942049353490255e+36,3.085677581491367e+17,-3.0780981174961725e-10,4.692469666573934e-10,9.679265757658385e-11,-3.0795240241900367e-10,4.695544450282938e-10,9.668991797688986e-11,-3.0992696270187177e-10,4.674229545414431e-10,9.63368942585918e-11,-3.1231677777887984e-10,4.702998927906208e-10,9.619103070585176e-11,-3.0126349736583355e-10,4.679422839240842e-10,8.283432199344823e-11
-2.367977887761874e+18,3.595478070310012e+19,-6.286757997521225e+19,9.942049353490255e+36,3.085677581491367e+17,1.0512330430524283e-11,-1.032521529990818e-10,1.6178152287571721e-10,1.053219680205617e-11,-1.0329891323597907e-10,1.618218495214768e-10,1.0385284750838617e-11,-1.031285013519232e-10,1.6199401683985423e-10,9.41463480406622e-12,-1.0224668549791294e-10,1.6092777199204114e-10,6.67844600268059e-12,-1.0041721562657766e-10,1.6095747410728748e-10
-3.8713480295466476e+19,-8.986411929173465e+18,4.459682645181567e+19,9.942049353490255e+36,3.085677581491367e+17,1.6950455587351235e-10,1.4474665543447837e-11,-2.033804425743231e-10,1.6955380964588518e-10,1.4514768727888359e-11,-2.0337486109465226e-10,1.6923832047589473e-10,1.4482576364426606e-11,-2.031977111494735e-10,1.6964480182120834e-10,1.4053344278441036e-11,-2.0423958343585308e-10,1.7315697131179158e-10,1.5306469698060595e-11,-2.0634370200979895e-10
-1.6220530239151487e+19,-4.3962639476185436e+18,-1.3606435876402432e+18,9.942049353490255e+36,3.085677581491367e+17,6.660914698287143e-10,1.0071444790145936e-10,1.5224262888626928e-10,6.659842340189428e-10,1.008011648685368e-10,1.5270463497262101e-10,6.659913113519115e-10,9.838139065792451e-11,1.484166063174265e-10,6.643005858337811e-10,9.86416875523701e-11,1.489904415091725e-10,6.640702554690864e-10,7.712458960184565e-11,1.5883493003162234e-10
-7.029480619462495e+18,-2.8197341863913574e+19,9.172921378665105e+18,9.942049353490255e+36,3.085677581491367e+17,2.0450544965385642e-10,5.887298898821734e-10,-1.213606446566654e-10,2.047817687733605e-10,5.887437364434625e-10,-1.211784789010227e-10,2.0750984481875444e-10,5.897614105579906e-10,-1.2100206267716446e-10,2.0535975525866646e-10,5.921513991614501e-10,-1.2749143950065784e-10,2.1198556763223143e-10,5.948529041205759e-10,-1.3319317040415821e-10
2.9046361153097957e+19,2.4875616390532674e+19,7.188035644498985e+18,9.942049353490255e+36,3.085677581491367e+17,-3.19263337455182e-10,-2.628509902307739e-10,-7.390922846746062e-11,-3.190257718601079e-10,-2.627727513991773e-10,-7.36931019030786e-11,-3.1881846744293166e-10,-2.636272190232627e-10,-7.416233253109645e-11,-3.190051200781868e-10,-2.612923610336727e-10,-7.582637103306038e-11,-3.180232359286278e-10,-2.677778494361804e-10,-7.473413365123367e-11
1.9006980751125135e+19,-3.38054331938059e+18,-1.861564591102661e+19,9.942049353490255e+36,3.085677581491367e+17,-3.788652633996509e-10,7.517200190001885e-12,3.554442439519257e-10,-3.7909681053298113e-10,7.741253529050121e-12,3.5516646430411823e-10,-3.785446586597598e-10,7.869030799801081e-12,3.5401012388287143e-10,-3.772137702491946e-10,1.0463870249178434e-11,3.4951018336628304e-10,-3.739250147972303e-10,2.3282863562359958e-12,3.5291941886823485e-10
1.5058947149214337e+19,-1.5307424354520168e+19,-2.3738956035186786e+19,9.942049353490255e+36,3.085677581491367e+17,-2.7510205645436913e-10,2.207637104714267e-10,3.43846150823351e-10,-2.751283902590394e-10,2.2081745249897718e-10,3.4359420223462945e-10,-2.754748929302189e-10,2.214752391897332e-10,3.439168362345949e-10,-2.7456469435093227e-10,2.2029329774578654e-10,3.3465367639858996e-10,-2.749856833107416e-10,2.223810608367437e-10,3.365025674728548e-10
-6.898950917357923e+18,-1.956275509554276e+19,1.0522162694932548e+19,9.942049353490255e+36,3.085677581491367e+17,1.8993181518191013e-10,4.239205627721127e-10,-2.9840540372884545e-10,1.9014612128063293e-10,4.238080407692548e-10,-2.9823045458798405e-10,1.924665241246525e-10,4.2180003528952674e-10,-2.9846294624504833e-10,1.9284904507358167e-10,4.206723294255523e-10,-3.0025220127473894e-10,1.8289379436870946e-10,4.192338151403518e-10,-2.9815945932443e-10
-7.696728082244562e+18,8.721132895784144e+18,-2.5627062341670724e+19,9.942049353490255e+36,3.085677581491367e+17,1.4707434464085328e-10,-1.6582565341845465e-10,5.394146897710731e-10,1.4710572256405973e-10,-1.6601034009809216e-10,5.395063940446378e-10,1.4812454964078007e-10,-1.6716500743942757e-10,5.386283906943764e-10,1.527068019474695e-10,-1.6980495051725483e-10,5.352809178994471e-10,1.3562556763522465e-10,-1.661308978145141e-10,5.234219738629183e-10
1.3166421402680005e+19,5.663591165025475e+19,-2.6490404129806246e+19,9.942049353490255e+36,3.085677581491367e+17,-5.725149363322791e-11,-2.1348262196048235e-10,9.180773539470386e-11,-5.735022963466124e-11,-2.1355883291865814e-10,9.183797131065169e-11,-5.752897203472685e-11,-2.1381113858246544e-10,9.230348535570033e-11,-5.644562734630496e-11,-2.130559590752072e-10,9.170559797876546e-11,-5.643784214833861e-11,-2.1318107712025673e-10,9.0529281737852e-11
7.036976500336357e+19,5.827030226625021e+19,3.3312526294027076e+19,9.942049353490255e+36,3.085677581491367e+17,-8.56462577964079e-11,-7.02982181068385e-11,-3.3861231625351057e-11,-8.563276829656271e-11,-7.029206884837654e-11,-3.385647597183877e-11,-8.570042483209167e-11,-7.022123805181386e-11,-3.388345203436659e-11,-8.567026527013915e-11,-7.020172723862688e-11,-3.4009395241080116e-11,-8.333868529560424e-11,-7.146322489380397e-11,-3.559017934462202e-11
-8.173267281643843e+18,-9.038375690820358e+18,1.1794401456743124e+18,9.942049353490255e+36,3.085677581491367e+17,-5.213741940863609e-10,9.374900665468884e-10,-2.0279439471026716e-10,-5.216778008751882e-10,9.37787774797734e-10,-2.0194833147559058e-10,-5.205322015097654e-10,9.325108605156586e-10,-2.0107869494502966e-10,-5.128456537300407e-10,9.429688478742107e-10,-1.9813617924947896e-10,-5.154191485026495e-10,9.313364830033638e-10,-1.9288183159913642e-10
-2.100696559687678e+18,1.901056534879192e+19,-1.7925181959986004e+19,9.942049353490255e+36,3.085677581491367e+17,7.26872203159402e-11,-3.9102356043167904e-10,3.6970556968599363e-10,7.286000716698447e-11,-3.9130588787540356e-10,3.696609644480553e-10,7.235853111725635e-11,-3.902516541783707e-10,3.702270628996316e-10,7.392762037790852e-11,-3.9608546666519014e-10,3.79673499288899e-10,7.163518569752431e-11,-3.9866082721304666e-10,3.539373585080135e-10
-2.5684859618434227e+18,3.221560869731204e+19,8.437602536784313e+19,9.942049353490255e+36,3.085677581491367e+17,2.337574135731291e-12,-4.889027898976971e-11,-1.2851293995141495e-10,2.322027975873769e-12,-4.892479638161024e-11,-1.2856037780204908e-10,2.2232617418095825e-12,-4.885245001310496e-11,-1.284003234346517e-10,2.1268786760789407e-12,-4.903425792329484e-11,-1.29106375878154e-10,2.2185655544456194e-12,-4.9465329207718606e-11,-1.2824327888041098e-10
-1.1726421209912226e+19,1.596285403818983e+19,2.0832594765324716e+18,9.942049353490255e+36,3.085677581491367e+17,3.437784076555465e-10,-5.132178309600792e-10,9.101637709950336e-12,3.437264978062521e-10,-5.129705568593129e-10,9.138142712712662e-12,3.399111910651286e-10,-5.12227545251356e-10,8.609376673796996e-12,3.3455233863259743e-10,-5.193123318008591e-10,1.02914669688395e-11,3.411387814177327e-10,-5.212897361269617e-10,5.857903324793744e-12
-2.078651641891817e+19,-1.1352788158232257e+19,-2.3417578713303974e+19,9.942049353490255e+36,3.085677581491367e+17,2.9915043714192523e-10,1.7619667558179205e-10,3.434017716281676e-10,2.9939599397028475e-10,1.7603851247370683e-10,3.4322928827307146e-10,2.997537112771258e-10,1.76112167153472e-10,3.4336951537436787e-10,2.976177652017154e-10,1.7573053366316764e-10,3.395881390187533e-10,2.974814920227044e-10,1.7027597289144532e-10,3.409621987454437e-10
1.702835835681038e+19,-4.461777932099912e+19,1.0768185725576825e+19,9.942049353490255e+36,3.085677581491367e+17,-1.434235011188023e-10,2.9107395654532424e-10,-4.354599543046921e-11,-1.4346340601040984e-10,2.911184851170856e-10,-4.352419550823923e-11,-1.4391381706902452e-10,2.9082644619121443e-10,-4.372135546112211e-11,-1.4377953703489632e-10,2.918136153624225e-10,-4.413388832769027e-11,-1.403727519910759e-10,2.927920257503039e-10,-4.2112200014542366e-11
3.0175689459451208e+19,-1.8052737317512434e+19,-1.987240054428583e+19,9.942049353490255e+36,3.085677581491367e+17,-2.8314452395110847e-10,2.0320775617156802e-10,2.0501896734432405e-10,-2.829318835003516e-10,2.0310539775491905e-10,2.0489198061979706e-10,-2.8317614065882223e-10,2.0395835147279245e-10,2.0471699544104673e-10,-2.82183433338015e-10,2.0212828343936055e-10,2.0519174171500477e-10,-2.8404055837802155e-10,2.0137333978450592e-10,2.1277516789229244e-10
-4.2031877628429885e+18,4.898558486160014e+19,6.430220841769624e+18,9.942049353490255e+36,3.085677581491367e+17,1.0261409363923055e-11,-3.1213262558993885e-10,-4.343087375369134e-11,1.0231183089379054e-11,-3.1215150447775325e-10,-4.364866921263545e-11,1.0621715815633675e-11,-3.1218994037022234e-10,-4.4009766937951624e-11,9.977582005383861e-12,-3.098060414236038e-10,-4.2042999336748423e-11,1.2148750047176487e-11,-3.0504176718355557e-10,-3.974198563889359e-11
3.1840802741562036e+19,-9.899655707791822e+19,-6.495935589397695e+19,9.942049353490255e+36,3.085677581491367e+17,-2.2436839577680997e-11,6.359618078852013e-11,4.358758553400079e-11,-2.2424919332161087e-11,6.358522124103884e-11,4.3576065493661645e-11,-2.2473678429463626e-11,6.367933418380211e-11,4.363439277922231e-11,-2.2452078161353144e-11,6.363149568346897e-11,4.383746254213133e-11,-2.2397235429900623e-11,6.351556314719889e-11,4.3753738312250384e-11
1.7307168021883599e+19,-1.553225213108781e+19,2.9680872595391437e+18,9.942049353490255e+36,3.085677581491367e+17,-4.993091685439523e-10,3.474777020826385e-10,-6.067767968578165e-11,-4.992973534154653e-10,3.4771582238628946e-10,-6.05786310196151e-11,-4.979569522545481e-10,3.4847801935975e-10,-6.028810184857216e-11,-4.978947795771038e-10,3.3714686841502665e-10,-6.083143106299584e-11,-5.101307914698516e-10,3.365377709242931e-10,-6.329687656747279e-11
-1.874243451852075e+19,-4.642931822956555e+18,-1.5575030154068552e+19,9.942049353490255e+36,3.085677581491367e+17,4.010154150277731e-10,1.032122864878788e-10,3.823507881601374e-10,4.00955109107473e-10,1.0306915855189461e-10,3.820600744954056e-10,3.994208279430845e-10,1.015432224464814e-10,3.8180650079086094e-10,3.9735360971599176e-10,1.028481216845663e-10,3.7843536165598415e-10,4.0594704961202445e-10,1.0479385305846743e-10,3.675378294811779e-10
2.0023148859293463e+19,1.0398268645807348e+19,5.802714573004889e+18,9.942049353490255e+36,3.085677581491367e+17,-7.491734888715658e-10,-9.69653166438762e-12,-1.939668617187205e-10,-7.489018167685679e-10,-9.643732110320276e-12,-1.9383849112886286e-10,-7.477974168981352e-10,-8.862022695999897e-12,-1.956023882505171e-10,-7.392636911266368e-10,-5.242495774963202e-12,-2.0550936657485856e-10,-6.490931594094612e-10,-7.921597747794051e-11,-1.9630909431840596e-10
4.920363629341942e+19,9.057931731223109e+18,-2.5481813587131474e+19,9.942049353490255e+36,3.085677581491367e+17,-2.3998314537616874e-10,-5.210354014268067e-11,1.3381417094550946e-10,-2.400811813803552e-10,-5.215802131588501e-11,1.3390889927115153e-10,-2.4038199555292474e-10,-5.171655003405862e-11,1.340035186562415e-10,-2.3668820009294675e-10,-5.09466379760188e-11,1.3420836083545284e-10,-2.342336722220699e-10,-4.7998297020994e-11,1.3348392403441092e-10
7.215383038402142e+18,2.2379943277568696e+19,-1.4989298450744297e+19,9.942049353490255e+36,3.085677581491367e+17,-1.7272921765202746e-10,-4.560516739550372e-10,2.8991177417361026e-10,-1.7293363494264462e-10,-4.562363459296778e-10,2.8986947970842846e-10,-1.7404605058187758e-10,-4.5473332590749475e-10,2.8869031146876924e-10,-1.722557535024079e-10,-4.507854135563569e-10,2.8945970458049895e-10,-1.6548441255793707e-10,-4.4963072871718274e-10,2.9126815761166657e-10
-3.081946394515233e+19,-1.4495197545381382e+19,-2.6338927624428577e+19,9.942049353490255e+36,3.085677581491367e+17,2.824960665322712e-10,1.2812797790256214e-10,2.335042391411338e-10,2.825495618725602e-10,1.279366076132174e-10,2.3332788370532777e-10,2.823198274059579e-10,1.281943841118418e-10,2.3374327566869836e-10,2.8302401480906166e-10,1.2619652320277415e-10,2.3420907039576467e-10,2.8487659105728087e-10,1.2160686841825228e-10,2.3307759844146496e-10
-2.092698367088972e+17,-1.013540089557635e+19,-1.4434270696421396e+19,9.942049353490255e+36,3.085677581491367e+17,-8.74318915997994e-11,3.478382728778117e-10,5.134314669743235e-10,-8.722054027077575e-11,3.483676055338991e-10,5.134097637795755e-10,-8.805261746289575e-11,3.4653887034981655e-10,5.139338167542203e-10,-8.763447866451813e-11,3.5238875050244276e-10,5.153265868855949e-10,-9.48964383160658e-11,3.3177002995913993e-10,4.850359750860791e-10
-3.7137648565396414e+19,-2.112425873976466e+19,1.5155742750271255e+19,9.942049353490255e+36,3.085677581491367e+17,2.9834793086112696e-10,1.7569767126817108e-10,-1.3744526828668553e-10,2.9806133211121823e-10,1.75607535333683e-10,-1.372799121056266e-10,2.982602301168471e-10,1.750965831377564e-10,-1.3747894301261757e-10,2.974479806104993e-10,1.787698399901484e-10,-1.3694219946309702e-10,2.911347061788517e-10,1.7442046812794345e-10,-1.389747081224755e-10
1.5414804201391555e+19,1.4869903381556845e+19,2.5251174408024183e+19,9.942049353490255e+36,3.085677581491367e+17,-2.447554101310263e-10,-2.2299587505447357e-10,-3.401703565723958e-10,-2.447831406243893e-10,-2.2287894976448977e-10,-3.404594395859219e-10,-2.4458581597407915e-10,-2.2196264030635433e-10,-3.4000753188545916e-10,-2.471803204094851e-10,-2.2166521426991538e-10,-3.379104576944722e-10,-2.3954878114091296e-10,-2.172976434182455e-10,-3.379204808164731e-10
2.4566989400614157e+17,8.849514096840992e+18,7.762741070999768e+18,9.942049353490255e+36,3.085677581491367e+17,-4.460178054425875e-11,-2.1175069599807658e-10,-3.9958119306609823e-10,-4.45052057391939e-11,-2.118829478941747e-10,-3.993580511197062e-10,-4.406537726696702e-11,-2.1135242403529115e-10,-3.9981656939016755e-10,-5.2793229830394864e-11,-2.064208128618646e-10,-4.0713673778497504e-10,-5.5753245682629185e-11,-1.9380157524439643e-10,-4.013937101749177e-10
-4.317964693141487e+19,-2.760821284410185e+19,-8.325117925109702e+18,9.942049353490255e+36,3.085677581491367e+17,2.684299019736753e-10,1.555891941205258e-10,5.531926355356427e-11,2.683495832980868e-10,1.5542976987284888e-10,5.529207778108905e-11,2.6812245048390635e-10,1.560376941324315e-10,5.5598736226509576e-11,2.695143188807512e-10,1.5632625159167604e-10,5.664443845874214e-11,2.713769353824457e-10,1.553055623176131e-10,5.701464992443473e-11
-3.712824592635068e+19,3.114905219875755e+19,6.687435082637992e+19,9.942049353490255e+36,3.085677581491367e+17,5.5314466398747365e-11,-7.451347596374701e-11,-1.290563571727054e-10,5.5324253059393515e-11,-7.449881438208985e-11,-1.2901073209825607e-10,5.54576883859657e-11,-7.466863904037728e-11,-1.2927203742430296e-10,5.479534192548329e-11,-7.506002811377024e-11,-1.2887309553477878e-10,5.678697534003398e-11,-7.522156035950795e-11,-1.3078443707053148e-10
1.2746053220671683e+19,6.88196315844717e+18,2.3850187970653553e+18,9.942049353490255e+36,3.085677581491367e+17,-4.403251534122506e-10,-2.0384717508266536e-10,-1.014634333330754e-10,-4.4022981385317895e-10,-2.0397429981996556e-10,-1.0179024586483727e-10,-4.3992018339734957e-10,-1.9898098150246718e-10,-1.0461045619947033e-10,-4.446437434412032e-10,-1.98946189390454e-10,-1.0019450378909203e-10,-4.4813607667377123e-10,-1.921563550169616e-10,-8.927139658251925e-11
-6.429566634071814e+18,5.326554194452405e+18,1.0812691371857302e+19,9.942049353490255e+36,3.085677581491367e+17,2.7454782759824966e-10,2.1839737200768013e-12,-5.561982327059951e-10,2.748630362463375e-10,1.958922515374341e-12,-5.562331660151516e-10,2.742238825550461e-10,2.159461467363177e-12,-5.560218201228707e-10,2.769265758533105e-10,2.9218745540122163e-12,-5.468194706107054e-10,2.7140424007560527e-10,6.052207972793557e-12,-5.17937685559419e-10
-3.2151542331392886e+18,-6.239651839216704e+19,3.028454201837631e+19,9.942049353490255e+36,3.085677581491367e+17,1.9745842395399293e-11,1.719887984929674e-10,-6.405690478923912e-11,1.9778727419151484e-11,1.719749797655519e-10,-6.403301744354632e-11,1.96062259103232e-11,1.719111164691313e-10,-6.385365516150468e-11,2.0249575047791886e-11,1.7134658004181811e-10,-6.421862769256706e-11,1.9683138761620383e-11,1.7284919026543048e-10,-6.526720234571789e-11
-2.1461677769833652e+19,3.8947538804946995e+18,1.0257871017664547e+19,9.942049353490255e+36,3.085677581491367e+17,6.715979072694834e-11,-2.330515361915432e-10,-6.010868448164632e-11,6.728180317589764e-11,-2.328824924422788e-10,-6.012752215290789e-11,6.603268785066824e-11,-2.3121460683085317e-10,-5.927539056558778e-11,6.937290291862428e-11,-2.825894848719602e-10,-4.8131990444066824e-11,7.551689480624638e-11,-2.8379677733551675e-10,-4.239142395852884e-11
-1.2351542014059926e+19,-7.15577736925542e+18,1.4672785008989537e+18,9.942049353490255e+36,3.085677581491367e+17,5.316509898066106e-10,2.7333712395377237e-10,-1.4357742336102846e-10,5.317127794201326e-10,2.733154376620296e-10,-1.4335084212655769e-10,5.351053880228332e-10,2.7280193756033525e-10,-1.4411516625856733e-10,5.157518360062183e-10,2.5785377528904985e-10,-1.367427612578137e-10,5.22741649648824e-10,2.545507787282516e-10,-1.3006822000994607e-10
1.1833240576850063e+19,-3.648454575086257e+19,7.394164354188857e+19,9.942049353490255e+36,3.085677581491367e+17,-2.6372415993898047e-11,6.928968117587246e-11,-1.429773273394013e-10,-2.633011018541481e-11,6.932846269522586e-11,-1.4292903709043728e-10,-2.629619232567935e-11,6.933430810999711e-11,-1.4280735680009778e-10,-2.6646135560332536e-11,6.912115451599913e-11,-1.4323818569847172e-10,-2.515180871955136e-11,6.95212243050594e-11,-1.435240637927252e-10
4.2863262834966045e+19,1.4250748401149809e+19,-7.165223595387556e+18,9.942049353490255e+36,3.085677581491367e+17,-3.580195561898875e-10,-1.0851049414258365e-10,9.379267397843572e-11,-3.579862240682535e-10,-1.0865126750652108e-10,9.37604294892192e-11,-3.5877371730749166e-10,-1.0865059124375637e-10,9.388254061265539e-11,-3.597342835578848e-10,-1.0822474962421255e-10,9.347547057827254e-11,-3.5343660659254906e-10,-1.0451509979240299e-10,8.765263210920848e-11
-8.866052805818417e+19,-2.6652135626524185e+19,4.6047136269816095e+19,9.942049353490255e+36,3.085677581491367e+17,9.720567100144675e-11,2.732339620963685e-11,-4.946916512006938e-11,9.72566934755187e-11,2.732845553581644e-11,-4.9491788017555855e-11,9.701917207756597e-11,2.7291821206755624e-11,-4.9478544938746655e-11,9.722632580756356e-11,2.747455799550794e-11,-4.93746674424664e-11,9.609177498843534e-11,2.7940264869952303e-11,-4.903102840471658e-11
-1.9858559334283457e+19,-1.469978986006661e+19,-3.5417454493899997e+19,9.942049353490255e+36,3.085677581491367e+17,1.7647174700970507e-10,1.1960537166305656e-10,3.325973376240854e-10,1.7667629985406806e-10,1.196582675950681e-10,3.3262914104591184e-10,1.760745026492319e-10,1.204523297257764e-10,3.3285046912783396e-10,1.747744565466197e-10,1.207408533853235e-10,3.3453887114100756e-10,1.7372217814776656e-10,1.2004901371984856e-10,3.3319366803501826e-10
-1.7931107229546974e+20,-2.9125462427380423e+20,2.169897577414249e+20,9.942049353490255e+36,3.085677581491367e+17,3.5756013387442725e-12,5.832898693148441e-12,-4.304442449425744e-12,3.574802736508423e-12,5.831788072419419e-12,-4.302844813135822e-12,3.5815724784172256e-12,5.8335034739439114e-12,-4.3074112547874855e-12,3.5904264486198884e-12,5.8345999257835615e-12,-4.3190312028433606e-12,3.5904264486198884e-12,5.8345999257835615e-12,-4.3190312028433606e-12
-3.2221523309030347e+19,-3.3300543706850746e+19,-1.254896938422788e+18,9.942049353490255e+36,3.085677581491367e+17,1.8204846059816498e-10,1.98157844928431e-10,-1.2349609003311566e-11,1.8193386848457605e-10,1.9796048685661073e-10,-1.2409583940093806e-11,1.8196838740438914e-10,1.9823693901490794e-10,-1.2293977212155211e-11,1.8152108019841743e-10,1.9742762827405107e-10,-1.2765495368588058e-11,1.809015247847684e-10,2.0031726482960584e-10,-1.9022811551066638e-11
-2.627766937522575e+19,-3.2413769240370508e+19,1.4405692083106558e+19,9.942049353490255e+36,3.085677581491367e+17,2.114866696104259e-10,2.501479052851426e-10,-8.596844145741735e-11,2.1136328853395911e-10,2.4997750676371564e-10,-8.584792089404986e-11,2.1191312745612907e-10,2.4939537321336387e-10,-8.619719368755979e-11,2.116089858874048e-10,2.5008600150943446e-10,-8.161251006048344e-11,2.1004422042494084e-10,2.5161535788591124e-10,-8.068726019896017e-11
