time,earth_angle,x,y,z,vx,vy,vz,p,q,r,qw,qx,qy,qz,force_x,force_y,force_z,moment_x,moment_y,moment_z,mass,ixx,iyy,izz,ixy,ixz,iyz,ax,ay,az,pdot,qdot,rdot,alpha,beta,airspeed,mach,dynamic_pressure,p_air,q_air,r_air,altitude,height_over_span,alpha_rate,cg_x,cg_y,cg_z,fuel_0,fuel_1,fuel_2
0.0083333333333333332,6.0767624999999995e-07,6287146.9402262075,1108597.5765763451,1.6666666666666665,-80.834891907640554,458.46692285362531,199.98845862148386,7.2876728405682571e-05,-0.00089583752734498628,2.5449114339681183e-06,0.71660247617468231,0.060543676493766109,-0.69201496724087541,0.06269481231762436,46719.069704091737,2.460539201035525e-05,-506910.53857956803,9.8132560477822751e-05,-211378.19093130264,-0.00018571856630308719,48534.382920877659,802064.40395291511,2087353.1678715143,2692973.5573734101,-0,25908.503954697087,-0,0.66559436622488732,0.11736266252905224,0.59750553679932994,2.9500108239536327e-09,-0.10126613631880814,3.1039952505131721e-08,0.034879581950094739,-1.6409122985242309e-11,199.98845869441482,0.63197233868460234,13200.782286620557,-7.6842828974910127e-18,-0.00089583752734498628,3.0027317980164947e-19,6000.0000013977169,207.9188725932689,-0.0032405471456762739,15.514652336448599,0,-0.89066168224299069,4535.9237000000003,4535.9237000000003,1814.3694800000001
0.09166666666666666,6.6844387500000009e-06,6287140.2062978903,1108635.7825610314,18.334826603888178,-80.780817818137479,458.47645694816282,200.03901314505018,0.0019069669265401742,-0.0094386764058032712,-0.00060457928257337513,0.71646530339592551,0.060577633375703849,-0.69215404481690013,0.062694478289462355,38089.640854662401,-22.587151411118747,-504464.94631895563,37768.039694393206,-216612.9960349334,-41306.554836987627,48534.253396413551,802064.11116188834,2087352.0439864653,2692972.1914697671,-0,25908.339521282298,-0,0.60976110567160891,0.10747398605344478,0.42564558032184613,0.047594809237099203,-0.10377506370550585,-0.015787899850571763,0.034197482899619533,1.5052394846786427e-05,200.03902310894543,0.63213214867591472,13207.454107719966,0.0018340892024213584,-0.0094386775048328955,-0.00060709551852741609,6000.0029439324981,207.91898016657601,-0.011888255789827863,15.514659847975199,0,-0.89066283903202459,4535.8913188835249,4535.8913188835249,1814.3047177670501
0.17499999999999999,1.2761201249999996e-05,6287133.4765395131,1108673.9892804867,35.006033212148218,-80.735397033434054,458.4844491899745,200.06771910637769,0.0074363467730714297,-0.018120748363260032,-0.0024394944445554883,0.71607352906178368,0.060773892509424013,-0.69253807283810898,0.062739561967978905,29513.557019995667,-206.82063530170657,-497643.8023714681,69802.926988019695,-217708.00967819121,-76440.799886638313,48534.134539072176,802063.84353368741,2087351.0526445038,2692970.9769911915,-0,25908.195036080877,-0,0.46524407590674483,0.081573235838152902,0.26528926355246191,0.087942252645964433,-0.10431452519172618,-0.029166628630111734,0.032841078889442654,0.00013777547307251855,200.06775050335273,0.63222298987774583,13211.236882313917,0.0073634662971439474,-0.018120758432263181,-0.0024419296538937957,6000.0104002258749,207.91925432314974,-0.019874318601399973,15.514666740917448,0,-0.89066390055792022,4535.8616045477756,4535.8616045477756,1814.2452890955517
0.2583333333333333,1.8837963749999997e-05,6287126.7499658512,1108712.1965578019,51.679088252067423,-80.705549427489615,458.48962783959087,200.08353068453883,0.016055184787569773,-0.026774104566292877,-0.0052915353846460095,0.71541909737827025,0.061267422940181657,-0.69315659277948205,0.062894800095629866,21009.125656924454,-706.29093973931413,-486663.86177838099,96113.974731638562,-214686.86119487975,-104902.53697561118,48534.025464557446,802063.59793330275,2087350.1428990935,2692969.8624748769,-0,25908.062443407242,-0,0.23687385142819375,0.039993732113363031,0.11610653215294497,0.12102949756341248,-0.102925498145355,-0.039912072659056594,0.030839994384985303,0.00047042741857788312,200.08358337549851,0.63227311274264097,13213.311915079234,0.015982299971806505,-0.026774138976191068,-0.0052938368112548408,6000.0213693135565,207.91966030106619,-0.027424854648025573,15.514673066549948,0,-0.89066487471706213,4535.8343359187165,4535.8343359187165,1814.1907518374337
0.3416666666666669,2.4914726250000007e-05,6287120.02499412,1108750.4041043723,68.352955494411404,-80.698036637487562,458.4906970618527,200.08736117778164,0.027163674448105725,-0.035245716555390827,-0.0089374258398328618,0.71449896521031298,0.062168329525988497,-0.69399586016643766,0.06321450457914346,12614.669210686789,-1641.0895577896413,-471780.77754688525,116848.83153719385,-207910.14150551541,-126543.41950525028,48533.925415824946,802063.3726566002,2087349.3084545978,2692968.8402034659,-0,25907.940825949478,-0,-0.06968709296782577,-0.017014459047530833,-0.022330129078688074,0.14702705238622918,-0.09981662147605308,-0.047944813829613006,0.02823602271934816,0.0010930863592762204,200.08742169612091,0.63228534796606373,13213.800029200931,0.027090784032313978,-0.035245796564860869,-0.0089395412597706916,6000.0342423400289,207.92014191513965,-0.034421588255426662,15.514678868769126,0,-0.89066576826958088,4535.809323735245,4535.809323735245,1814.1407274704882
0.42500000000000049,3.0991488750000014e-05,6287113.2994993972,1108788.6115244171,85.026680596356954,-80.719080301675604,458.48638045665263,200.08068586461161,0.040181200862681461,-0.04339905684321764,-0.013108394453222589,0.71331431651300958,0.063561888012487092,-0.69503911539436602,0.063743237458441779,5901.3562129348138,-3095.8528873277664,-453308.18249766075,132295.46336742069,-197583.2273229931,-134213.94493497934,48533.833386412385,802063.16542493296,2087348.5404435089,2692967.8994323909,0.00092476817284502981,25907.828884442857,-0.00017270036031881791,-0.44673824281181584,-0.089197809708624967,-0.11932015300437125,0.16620516855924561,-0.095116750508288953,-0.050599900177510392,0.02507936731823018,0.0020624405313490481,200.0807327540723,0.63226431444062325,13212.898096737968,0.040108304069502353,-0.04339920787186357,-0.013110272977077217,6000.0468579376284,207.92062342838139,-0.040777587243682349,15.514684205937543,7.5097554416140443e-09,-0.89066659020342054,4535.7862266974316,4535.7864060661441,1814.0947127635727
0.50833333333333397,3.706825124999999e-05,6287106.5708675263,1108826.8183168317,101.69959073066603,-80.774199848946097,458.47542785123483,200.06838741252713,0.054562581479826476,-0.051105687965957027,-0.017256609905730535,0.711869495308042,0.065504099297474971,-0.69626717630918589,0.064521731374267852,969.52954719203603,-5098.0265214068822,-431615.41351726354,143056.39959967451,-184152.54382498137,-129652.72585783617,48533.745939288565,802062.96849053737,2087347.8098682004,2692967.0047202045,0.0095675895355086943,25907.72238778089,-0.001794086913137339,-0.88659313243671078,-0.1762093498464444,-0.17479063437459597,0.17935233750530155,-0.089042916749272991,-0.04853105314436254,0.021426487332241985,0.0033971819067465134,200.06840489945958,0.63222543765918415,13211.255742510637,0.054489678151566294,-0.051105936773853188,-0.017258202683348992,6000.0565546318176,207.92101133121673,-0.04641997705819962,15.514689277378734,8.2798326385894343e-08,-0.89066737121477335,4535.7634657932003,4535.7654434078622,1814.0509892010607
0.59166666666666701,4.3145013749999966e-05,6287099.8360481951,1108865.0238777716,118.37129024584361,-80.868350604768864,458.45662793519159,200.05171189946844,0.069841258182002861,-0.058264859137188645,-0.021185611354949303,0.71017126395503338,0.068023034506926761,-0.69765876376257496,0.065588809824966773,-3807.0032241680919,-7617.6771850583118,-407089.27062938595,149730.9491724862,-168277.52522920383,-122296.80975402187,48533.662160145948,802062.77981593658,2087347.1099122006,2692966.1475127111,0.026789136930955242,25907.620354190753,-0.0050277311869250637,-1.3820054270154454,-0.27742409058586964,-0.22443674558165044,0.18734373135319626,-0.081903298179453854,-0.045261714064461271,0.017339294625750054,0.0050778602119241614,200.05171217361294,0.6321727180650959,13209.045899806975,0.06976834888082277,-0.058265230947025376,-0.021186872178568263,6000.0602235768829,207.92119615886247,-0.051297783380894808,15.514694136114795,2.3483088228694307e-07,-0.89066811946914159,4535.740705384751,4535.7463142444267,1814.0090996291769
0.67500000000000004,4.9221776249999943e-05,6287093.0916058104,1108903.2275046082,135.041434143657,-81.005803966422079,458.42881862795724,200.03112758045086,0.085614431561041204,-0.064794890273784281,-0.024805335645676337,0.70822867080286012,0.071129693324318524,-0.69919033371860617,0.066974575884185109,-8338.228090928962,-10606.064845529128,-380132.40015782445,152872.74927776074,-150382.80669841127,-112800.40900802966,48533.581834136712,802062.59891741548,2087346.4387857001,2692965.3256166973,0.052086241764130174,25907.522522841326,-0.0097790595723532513,-1.9243086771307143,-0.39237958364255743,-0.26868366461254656,0.19089139967937985,-0.073885454201290862,-0.041060438200836755,0.012882561157212001,0.0070725036714199595,200.03118167530843,0.63210779248025217,13206.343438313475,0.085541517627065772,-0.064795407738612809,-0.024806221410712682,6000.0543593386265,207.92105428136904,-0.055385406152350276,15.514698794603587,4.5910050049578823e-07,-0.89066883688505971,4535.7179455875894,4535.7289110364172,1813.9689366240052
0.75833333333333308,5.5298538749999919e-05,6287086.3337793034,1108941.4283991486,151.7097148738481,-81.190095825501913,458.39086487015902,200.00706378148553,0.1015376170620132,-0.070629175224134991,-0.028048400210473372,0.70605264634228104,0.074821080526567288,-0.70083640424716842,0.068700807737597236,-12540.139438307444,-14002.30075549243,-351158.506653219,153010.78495329831,-130877.44944520334,-101816.03936456524,48533.504766786129,802062.4253570846,2087345.794867039,2692964.5370453945,0.085003329534963964,25907.428657383669,-0.015962447692604315,-2.5045444383303468,-0.52087177440258525,-0.30804071481134404,0.19067679209831156,-0.065162150008945013,-0.036200709415952222,0.0081226055925366619,0.0093409813901889349,200.0073400244369,0.63203229345908785,13203.223654245454,0.10146470062759941,-0.070629857707010149,-0.02804887130157728,6000.0351193565821,207.92045000985266,-0.058669623466368899,15.514703264121701,7.5152901758784673e-07,-0.89066952519914233,4535.6951864894318,4535.7131364587522,1813.9304029481832
0.84166666666666612,6.1375301249999895e-05,6287079.5585444057,1108979.6256688866,168.3758813897291,-81.424002120650854,458.34162987138291,199.98099984235242,0.11732339240350953,-0.075712321786337453,-0.030954198128589312,0.70365574687824373,0.079083088679241575,-0.70256988738161519,0.070781412212224504,-14657.01417039017,-17739.621579594328,-320590.18432083988,150597.51920811669,-109944.24858602637,-97929.898992912611,48533.430027178474,802062.25702174997,2087345.1697416145,2692963.7716536117,0.12324851621927232,25907.337522006419,-0.023148619580662961,-3.1134264717743503,-0.66326942893258056,-0.30843112710199594,0.1873753688809473,-0.055802718388086897,-0.033905629429712716,0.0031264112997560624,0.011839006817951076,199.98180823563786,0.63195130964828994,13199.906701449072,0.11725047636505777,-0.075713184936638173,-0.030954218753378338,5999.998385472778,207.91923779248529,-0.061145576574153156,15.514707598656015,1.0926245721304872e-06,-0.89067019272546866,4535.6724281420602,4535.6985250017788,1813.8930331438382
0.92499999999999916,6.7452063749999871e-05,6287072.7616771571,1109017.8183246606,185.03990473962912,-81.709582262550086,458.27992328575328,199.9555894797422,0.13272627538525486,-0.079994881008233085,-0.033700089450452921,-0.70105256354345147,-0.083897578042245305,0.70436180583383212,-0.073218481480451486,-16436.082137967282,-21776.797314987023,-288703.09142497118,145899.11981279621,-87379.538923065178,-94150.149515558558,48533.355418298801,802062.08897203871,2087344.545374102,2692963.0072738733,0.161734951790208,25907.246492300754,-0.030380875907719009,-3.745051936239459,-0.8206644975780728,-0.30775223142420755,0.18123348356406449,-0.04570895083449461,-0.031611714612382297,-0.0020384689024903653,0.014534304634786133,199.95743012830727,0.63187379206923466,13196.774346725353,0.1326533633499748,-0.079995937535112888,-0.033699627953332686,5999.939826092962,207.91726443692059,-0.062798509886391587,15.51471192562205,1.4363992933830291e-06,-0.89067085908626686,4535.6496704938727,4535.6839782096158,1813.8557287034864
1.0083333333333322,7.3528826249999847e-05,6287065.9387951912,1109056.0052728164,201.70178391167227,-82.048565957679287,458.20442580373026,199.92928627116908,0.1475214562052333,-0.083399237618424174,-0.036222509346765845,-0.69825993270750619,-0.089240535629843548,0.70618149254256168,-0.076005873234688437,-18664.722700510829,-26081.87855646828,-255838.07301903781,139223.03152059612,-63277.793939461117,-88166.483495939436,48533.280811418022,802061.92092677322,2087343.9210213814,2692962.2429127111,0.20022050355936166,25907.155464741911,-0.03761296121631217,-4.3914504632920073,-0.99387468737336215,-0.32390549934987989,0.1726183034005099,-0.034901844778219678,-0.028499178861888356,-0.0073008859194218833,0.017399764880998713,199.93290204402768,0.63179558411199832,13193.661043062157,0.14744855240371443,-0.083400497571842827,-0.03622153859509749,5999.8549354590477,207.91437054468511,-0.063579567205647794,15.514716252485464,1.7801658611810834e-06,-0.8906715254312606,4535.6269134554022,4535.6694318071841,1813.8184252625852
1.0916666666666652,7.9605588749999824e-05,6287059.0854169289,1109094.1853109458,218.36141244996719,-82.441495495509443,458.1138778131334,199.90154170212296,0.16151911710352551,-0.085901482052446188,-0.038461793737691423,-0.69529684552952753,-0.095079372354051145,0.70799723503095657,-0.079133587925537319,-20580.134066922423,-30599.833775421426,-222673.29911637891,130895.18249898175,-39145.295952933673,-80487.676717144786,48533.20620631495,802061.75288545515,2087343.2966816009,2692961.4785678592,0.23870528560572118,25907.064439060028,-0.044844896950390269,-5.0380577173313235,-1.1818252265494735,-0.34239991111529644,0.16195263157855269,-0.02407585317570789,-0.024792354927585764,-0.012590129828332979,0.020403992301821362,199.90796716099612,0.63171583628243155,13190.539633807142,0.16144622625721719,-0.085902952438339258,-0.038460291536937155,5999.7390912128276,207.91039260840446,-0.063527868001603052,15.514720579259082,2.123925294659204e-06,-0.89067219176242574,4535.6041569591753,4535.6548857513581,1813.7811227105344
1.1749999999999983,8.56823512499998e-05,6287052.1970572406,1109132.3571341403,235.01866178016795,-82.887991081372107,458.00707023074847,199.87214916687574,0.17456265465893864,-0.087504267246381245,-0.040376192849488755,-0.69218316189585205,-0.1013746231830327,0.70977803393831573,-0.082588126876798354,-22156.670611652411,-35280.591530329046,-189637.28402572105,121204.35388511128,-15266.444752880323,-71577.446943047908,48533.131602722373,802061.5848474825,2087342.6723525079,2692960.7142365631,0.27718943647977684,25906.973414926255,-0.052076709132471137,-5.6754241027619807,-1.3839610922056667,-0.36349059840348158,0.14961009143930598,-0.013340686810226087,-0.020694402628877881,-0.017838660235904854,0.02351330538388809,199.88275447281134,0.63163491812595662,13187.433910817181,0.17448978182007308,-0.087505951807914414,-0.0403741420629481,5999.587649674264,207.90516646524998,-0.062680550600835799,15.514724905958396,2.4676788250435742e-06,-0.89067285808214824,4535.5814009236919,4535.640339990041,1813.7438209137347
1.2583333333333313,9.1759113749999776e-05,6287045.2692948906,1109170.5193392879,251.67338536985153,-83.386906256705345,457.88286299708625,199.84088608713165,0.18652509523757191,-0.088218806289643029,-0.041939970978837379,-0.6889394733690366,-0.10808146028271477,0.71149418997510372,-0.086352866824568802,-23384.779608886922,-40073.268087411387,-157139.14682904223,110408.54488087028,8110.6305522632465,-61842.940870500555,48533.057000315348,802061.41681212245,2087342.0480313622,2692959.9499154743,0.31567312451805524,25906.88239194101,-0.059308429388754608,-6.2946126069397828,-1.5991715345035296,-0.38730258602978057,0.1359229551083701,-0.0027910046574766822,-0.016383124789157173,-0.022982149268394265,0.026693648277560163,199.85741366866517,0.63155326498409114,13184.370315270533,0.18645224561206419,-0.088220705451179299,-0.041937359587221966,5999.3960130078613,207.89852973122734,-0.061077583377720533,15.514729232602257,2.8114279495457484e-06,-0.89067352439333058,4535.5586452498292,4535.6257944598719,1813.7065197097054
1.3416666666666643,9.7835876249999752e-05,6287038.2978345491,1109208.6704328076,268.32541786911912,-83.936373713332443,457.74023322274178,199.80752545306837,0.19730544522378404,-0.088063712853423737,-0.043141130327142486,-0.68558711171038267,-0.11515103459157652,0.71311771022825521,-0.090408422439035088,-24270.137524527454,-44928.524693389481,-125566.99039458502,98731.288807266232,30771.432199018775,-51625.899920510245,48532.982398709486,802061.24877850909,2087341.4237149295,2692959.1856006365,0.35415654873948543,25906.791369632301,-0.066540095105967215,-6.8872722933655206,-1.8257506076374435,-0.41381481016269517,0.1211773495997631,0.0074911132799750282,-0.012007036547423945,-0.027959692138505566,0.029912180737444002,199.83211649018412,0.63147138279285953,13181.378024817524,0.19723262398529112,-0.088065823806670621,-0.043137951456577277,5999.1596916405024,207.89032405785454,-0.058761242728201428,15.514733559212955,3.1551744391601506e-06,-0.89067419069940568,4535.5358898203458,4535.6112490859132,1813.6692189062635
1.4249999999999974,0.00010391263874999973,6287031.2785647567,1109246.8088425065,284.97457526300718,-84.533857037261257,457.57832552347406,199.7718484985219,0.206824767720171,-0.087064036017097141,-0.04397888974772602,-0.68214815744076385,-0.12253164051015308,0.71462266323935308,-0.09473298031180015,-24832.178481830397,-49800.429990919969,-95286.490540599058,86360.392844025802,52532.04912683156,-41198.760751067312,48532.907797459869,802061.08074563951,2087340.799399466,2692958.4212874724,0.39263993942929148,25906.700347454109,-0.073771749551567109,-7.445707253947587,-2.0613841555454044,-0.44284900157034429,0.10561173652475815,0.017434011640475415,-0.0076835840183411648,-0.032713989201771224,0.033138521692196082,199.80705699104135,0.63138984938530252,13178.488901392044,0.20675197982329335,-0.08706635292593698,-0.043975141665699401,5998.874363384155,207.88039726515382,-0.055775889885961105,15.514737885816293,3.4989203441126365e-06,-0.89067485700434756,4535.5131344995252,4535.5967037814116,1813.631918280942
1.5083333333333304,0.0001099894012499997,6287024.2076113326,1109284.9329336407,301.62065611257634,-85.176208014599581,457.39650234671518,199.73365807762872,0.2150222401328177,-0.085250462350872178,-0.044461086666898006,-0.67864543825079515,-0.13016969363963893,0.71598548404784601,-0.09930260133511315,-25102.12858614347,-54647.82019578146,-66639.607717862309,73448.746719517207,73235.820508417411,-30765.050909204925,48532.833196060368,802060.91271237342,2087340.1750807175,2692957.656970778,0.43112355841729322,25906.609324785786,-0.08100344191744499,-7.9629410227981765,-2.3031628546718483,-0.47406406655447014,0.089418162786473382,0.026974627634229083,-0.00349921412401643,-0.037191517605329419,0.036345642892604821,199.78245074069935,0.6313093124252368,13175.737305976538,0.21494949013287004,-0.085252976649912826,-0.044456772744637094,5998.5359288387872,207.86860533194462,-0.052167908416665763,15.514742212441623,3.8426679964349726e-06,-0.89067552331267641,4535.4903791329862,4535.5821584476862,1813.5946175806791
1.5916666666666635,0.00011606616374999968,6287017.0813857848,1109323.041029098,318.26344392343503,-85.859729076168705,457.19439217465839,199.69279226355263,0.22185140321131372,-0.082658659879321278,-0.044601644161000507,-0.6751025107451768,-0.13801052272386577,0.71718523216759655,-0.10409149035225981,-25120.66444286007,-59435.173073706217,-39943.389574261448,60116.811640440705,92749.800732046395,-20463.353045869084,48532.758593943698,802060.74467743223,2087339.550753915,2692956.8926447202,0.46960769911642758,25906.518300931988,-0.088235227331219718,-8.4327751853961903,-2.5476197819332045,-0.50695644258396388,0.072745735712623563,0.036056935829240896,0.00048903527415254981,-0.041342700541717362,0.03951042599418169,199.75853304453972,0.63123048419633732,13173.159790799849,0.22177869509725945,-0.082661360641100093,-0.044596772800429993,5998.1405625531706,207.85481422740759,-0.047985694777737661,15.514746539121848,4.1864200102178906e-06,-0.89067618962945927,4535.4676235476882,4535.5676129741305,1813.5573165218257
1.6749999999999965,0.00012214292624999966,6287009.8966283277,1109361.1314334429,334.90271063908199,-86.580240315478591,456.97193365443729,199.64913765867007,0.22727676619644963,-0.079328743211751609,-0.044418217205009276,-0.67154362183635796,-0.14599898609475576,0.71820380662650307,-0.10907223376006736,-24935.316400567372,-64133.029557569753,-15488.869669138543,46456.39460884859,110961.11950952357,-10374.080462423886,48532.683990482059,802060.57663940149,2087338.9264137873,2692956.1283028503,0.50809268612913827,25906.427275123679,-0.095467166779212007,-8.8498401285920441,-2.7907901187846176,-0.54086669272437404,0.055705772656983295,0.044630605880253124,0.0042507620882731361,-0.04512207486024581,0.04261390902242404,199.73555627565167,0.63115413354466066,13170.794682214955,0.2272041032425863,-0.079331617558491996,-0.044412801728668766,5997.6847595700056,207.83890156829966,-0.043279629964912816,15.514750865893383,4.5301792780503161e-06,-0.89067685596030322,4535.4448675521453,4535.5530672383429,1813.5200147904961
1.7583333333333295,0.00012821968874999963,6287002.6504451577,1109399.2024604052,351.53822121326664,-87.333150326966788,456.72941393152911,199.60264189395909,0.23127088772968235,-0.075304844433887491,-0.043930104407072693,-0.66799364798362504,-0.15407992994187764,0.71902612269400956,-0.1142160073118221,-24597.736039346939,-68718.009573504576,6459.914257290402,32535.32818355818,127773.34249335546,-528.31985729453606,48532.609384988675,802060.40859673405,2087338.3020545668,2692955.3639381127,0.54657887448187847,25906.336246519833,-0.10269932696678286,-9.2096355570575668,-3.0282900105711157,-0.57499234840438396,0.038378101921567452,0.052649813006762448,0.007778567137573961,-0.048488453459341038,0.045641256862396187,199.71378643092629,0.63108107532716839,13168.681569831066,0.23119827237057272,-0.075307877971461323,-0.043924162909913564,5997.1653769113964,207.82075808887876,-0.038101994483597655,15.51475519279605,4.8739489648053905e-06,-0.89067752231134256,4535.4221109368636,4535.5385211064176,1813.4827120432876
1.8416666666666626,0.00013429645124999961,6286995.3403396746,1109437.2524632711,368.16973917232684,-88.113529914283205,456.46749972704316,199.55332480589135,0.23381201025283685,-0.070634778791170208,-0.0431564855275905,-0.66447801146755892,-0.1621985106874029,0.71964025476642701,-0.11949275763249972,-24160.942701881922,-73172.476980169246,25666.756741155023,18402.705355569004,143102.95246300279,9081.9581558611444,48532.534776719898,802060.2405477541,2087337.6776700129,2692954.5995428711,0.58506664847266177,25906.245214210263,-0.10993178010206675,-9.5085584816402786,-3.255411253963052,-0.60840673648725752,0.020818039366724186,0.060072158224790249,0.011083857979760536,-0.051405077154904673,0.048581495771853452,199.69349903736637,0.63101215776113528,13166.860719085178,0.23373944398487451,-0.070637956045203398,-0.043150040690265137,5996.5796696004509,207.80028890898899,-0.032506817507609177,15.514759519872985,5.2177324970598019e-06,-0.89067818868921955,4535.3993534750152,4535.5239744333621,1813.4454079083835
1.9249999999999956,0.00014037321374999959,6286987.9642375037,1109475.2798675208,384.79703303705264,-88.91618754128794,456.18725998372696,199.50128781243063,0.23488228817447362,-0.065369796927848431,-0.042115021687080846,-0.66102257316976976,-0.17030040680066591,0.72003754915160145,-0.12487136187012433,-23676.655426426103,-77483.913231639119,41923.959237387586,4094.3579002525385,156876.08255249355,18492.954919156546,48532.460164878248,802060.07249066501,2087337.0532534334,2692953.8351089382,0.62355642016878043,25906.154177219174,-0.11716460361023104,-9.743916767313765,-3.4672283540185953,-0.64008325833642254,0.0030636248744493142,0.06685767848792265,0.014192350097249376,-0.053839751018028299,0.05142705456974881,199.67497454445609,0.6309482481021762,13165.372425418842,0.23480977148640941,-0.065373101764500452,-0.042108100551030744,5995.9253209794315,207.77741459332694,-0.026549672072490749,15.514763847170446,5.5615335495834004e-06,-0.89067885510105738,4535.3765949233484,4535.5094270636891,1813.4081019870428
2.0083333333333289,0.00014644997624999956,6286980.5205051936,1109513.283204969,401.41988343589952,-89.735745262234616,455.89017919299812,199.4467210644172,0.23446661785058878,-0.059564416205486401,-0.040820834909752218,-0.65765350112482379,-0.17833194674340233,0.72021270931579873,-0.13031977044549511,-23192.805004723556,-81644.061233385655,55052.842390495549,-10361.69038764498,169025.63740146358,27757.92381396953,48532.385548616148,802059.90442355745,2087336.4287977202,2692953.0706276149,0.66204862743468407,25906.06313450991,-0.12439787976276544,-9.9139269109918491,-3.6587145368227567,-0.66892434730712191,-0.014857232122828624,0.072967950420120872,0.017139486735197777,-0.055764961837894415,0.054173155738787268,199.65849334526479,0.63089021709997162,13164.256329088672,0.23439415018435752,-0.059567832222162165,-0.040813468614999314,5995.2004670485139,207.7520719931214,-0.020287441114511522,15.51476817473759,5.9053560280699484e-06,-0.89067952155442687,4535.3538350233312,4535.4948788321435,1813.370793855481
2.0916666666666619,0.00015252673874999954,6286973.0079626134,1109551.2611486074,418.03809070899143,-90.566713785143136,455.57816079333173,199.38990802168888,0.23255205064117898,-0.053276322523624395,-0.039285866696853203,-0.65439711367066544,-0.18624017964500994,0.72016385468107702,-0.13580513803309974,-22751.30697991377,-85647.900606635259,64904.113865434047,-24940.020523379892,179488.93402332693,36936.352658106021,48532.310927040453,802059.73634441907,2087335.8042953848,2692952.3060897365,0.70054373157090966,25905.972084990393,-0.13163169523804724,-10.017695412133257,-3.8248634777034152,-0.69379413319157768,-0.032919984074833368,0.078365311708403426,0.019965959265315084,-0.057157975754216835,0.056817098801607645,199.64433057262295,0.63083892269398933,13163.550709752724,0.2324796303834698,-0.053279833397609395,-0.039278090183848077,5994.4037147422941,207.72421486766873,-0.013778084838025201,15.514772502626215,6.2492040482747518e-06,-0.89068018805730531,4535.3310735025307,4535.480329564587,1813.3334830671211
2.1749999999999949,0.00015860350124999951,6286965.4258891642,1109589.2125472995,434.65148277669357,-91.403565299717428,455.2535202901023,199.33122719068189,0.22912774877622755,-0.046566331442054736,-0.037518601570996131,-0.65127969557419696,-0.19397291402929626,0.71989255246026462,-0.14129394774019854,-22386.161363361545,-89492.513859921513,71358.127148941698,-39613.048652791898,188205.98178664455,46083.84917501139,48532.236299217664,802059.56825114693,2087335.1797386012,2692951.5414857268,0.73904221467417763,25905.881027519627,-0.13886614062194413,-10.055183831899864,-3.9608137607849452,-0.71355369746829922,-0.051097279267099602,0.083012239717772551,0.022713473223152078,-0.058000917670996854,0.059357476511250264,199.63275081707684,0.63079519341276258,13163.291779932137,0.22905537328043515,-0.046569921227719815,-0.037510453248162039,5993.5341540713489,207.69381428401965,-0.0070804395798922731,15.514776830890467,6.5930819120289144e-06,-0.89068085461803104,4535.3083100761978,4535.4657790790052,1813.2961691552066
2.258333333333328,0.00016468026374999949,6286957.7740240898,1109627.1364594747,451.25992302858816,-92.240802739550617,454.91896798361159,199.27115085734644,0.2241854270314057,-0.039498393691647274,-0.035524130679053766,-0.64832728524250016,-0.20147874771043323,0.71940382045863716,-0.1467521330020195,-22121.929835887106,-93175.900309533463,74325.080610385266,-54346.835652084083,195118.50135380804,55243.059175994116,48532.161664179752,802059.40014156047,2087334.5551192577,2692950.7768056574,0.77754457651966447,25905.78996091475,-0.1461013098218053,-10.027158362027029,-4.0619733776485774,-0.72709771518633004,-0.069353570245512711,0.086870936988592162,0.025420873003801692,-0.058280836380514567,0.061793362065398268,199.62400291038779,0.63075981193289388,13163.512995660167,0.22411309266887328,-0.039502047059404334,-0.035515652057799107,5992.5913642889682,207.6608587995419,-0.00025407350002344442,15.514781159586498,6.936994079909068e-06,-0.89068152124525124,4535.2855444490706,4535.4512271866652,1813.2588516357405
2.341666666666661,0.00017075702624999947,6286950.0525611816,1109665.0321849487,467.86331797908088,-93.073024245845005,454.57758140418758,199.21024075133005,0.21772021064806973,-0.032139625804273105,-0.033304522162113256,-0.64556543119414667,-0.20870710909093174,0.71870609741394387,-0.15214520104834106,-21972.627189525323,-96695.791383844931,73745.21467198692,-69097.588902002579,200169.75722218392,64435.884253357508,48532.08702093074,802059.23201341613,2087333.9304290107,2692950.0120393154,0.81605133128639296,25905.698883959172,-0.1533372994573686,-9.9351254139581968,-4.1241418621604229,-0.73339124601950056,-0.087640623175197663,0.089903178174950346,0.028120711646468295,-0.057989761080779946,0.064123503026173589,199.61831491231177,0.63073349923461897,13164.24440184079,0.21764791288687058,-0.032143328216869486,-0.033295757461098412,5991.5754142147607,207.62535443333587,0.0066407836089959283,15.514785488772072,7.2809451419719561e-06,-0.89068218794786214,4535.2627763173405,4535.4366736933725,1813.2215300107155
2.424999999999994,0.00017683378874999944,6286942.262138362,1109702.8992940292,484.46162443481444,-93.894981752738147,454.23276774249592,199.14914068018768,0.20973183084365543,-0.024560342010396717,-0.030859458612449507,-0.64301891645720854,-0.21560832674774741,0.71781117642511638,-0.15743836100018466,-21941.051437152531,-100048.51743316883,69589.067155870667,-83808.941087573898,203305.24900975853,73657.211655741674,48532.012368453557,802059.06386442261,2087333.3056593421,2692949.2471762747,0.85456300390030204,25905.607795410891,-0.16057420816461498,-9.7812553764024983,-4.1436279142546208,-0.73150545240201925,-0.10589401740982715,0.092070473080070145,0.030836331508789176,-0.057124755946590861,0.066345555102258993,199.61588942974291,0.63071689976499734,13165.512028394667,0.20965956435254537,-0.024564079834427106,-0.030850454332829264,5990.4868570478357,207.58732443590839,0.013543229274636876,15.514789818506182,7.6249397848956839e-06,-0.89068285473494901,4535.2400053707806,4535.4221184008247,1813.1842037716094
2.5083333333333271,0.00018291055124999942,6286934.4038226577,1109740.7376530881,501.05485592649023,-94.701632817811685,453.88821673333285,199.08856627216412,0.20022607297648912,-0.016834059133600698,-0.028187097053148116,-0.64071145053146117,-0.22213374057189189,0.71673409644152353,-0.16259665880811747,-22018.566668493284,-103227.97246988503,61857.842229380847,-98410.067169332804,204474.27375236855,82870.322706087594,48531.93770571753,802058.89569225861,2087332.6808016216,2692948.4822059697,0.89308012627809208,25905.516694011621,-0.16781213589363594,-9.568297265070278,-4.1173605655349661,-0.72065107814397278,-0.12403069496984409,0.093334596012362783,0.033579506630037101,-0.055687979473537007,0.068455386514199482,199.61689938671827,0.63071056798627578,13167.337351887438,0.20015383175107943,-0.01683781968631904,-0.028177901526416093,5989.3267200067885,207.5468088709388,0.020391600481162252,15.514794148848615,7.9689827585951963e-06,-0.89068352161571851,4535.2172312950051,4535.4075611080698,1813.1468724030783
2.5916666666666601,0.0001889873137499994,6286926.4790911647,1109778.5474458314,517.64308817320295,-95.488185069849976,453.54784460747823,199.02929205992365,0.18921638836535321,-0.0090374423317061275,-0.025285103053827758,-0.63866533000777315,-0.22823586398517839,0.71549298672235229,-0.1675851204257981,-22185.344251850289,-106224.71938901646,50583.936668777766,-112814.68034070816,203632.33564256818,92004.105666475865,48531.863031686029,802058.72749458905,2087332.0558471731,2692947.7171177804,0.93160323329151373,25905.425578496379,-0.1750511831514395,-9.2994874905107814,-4.0429920692259733,-0.70020860671095575,-0.14194759633099235,0.093658522667214153,0.036348687406745878,-0.053686754368977359,0.070446481299941119,199.62148435208678,0.63071495665123756,13169.73683560469,0.18914416587300298,-0.0090412138653651487,-0.02527576596381529,5988.0964892972324,207.50386402435055,0.027123325755184526,15.514798479859495,8.313078840211618e-06,-0.89068418859943033,4535.1944537738173,4535.3930016129943,1813.1095353868154
2.6749999999999932,0.00019506407624999937,6286918.48980862,1109816.3291895525,534.226463370391,-96.250132932620659,453.21572987493056,198.97213622335013,0.17672557845918477,-0.001250156589040546,-0.022151807476318473,-0.63690107084213343,-0.23386860301277884,0.71410885966735382,-0.17236890389390608,-22411.060866446278,-109025.27409274458,35831.648458377786,-126920.92956819363,200744.34085393182,100952.16164461841,48531.78834532445,802058.55926908355,2087331.4307873372,2692946.9519011062,0.97013285863545662,25905.3344476028,-0.18229145022784465,-8.9784563810728972,-3.918990747674342,-0.66975412472785123,-0.15952140014706931,0.093007801743626078,0.03912788165358657,-0.051133651769549274,0.072309467519483694,199.62974751963853,0.63073040710891159,13172.721559594165,0.17665336779859128,-0.0012539282170953214,-0.02214237935689875,5986.7980908656091,207.45856165799023,0.033674746623035524,15.514802811598843,8.6572327976587241e-06,-0.89068485569532663,4535.1716724916378,4535.3784397138743,1813.0721922055166
2.7583333333333262,0.00020114083874999935,6286910.4382022424,1109854.0837457229,550.80519312226602,-96.98328659973356,452.89604185081873,198.91794338587761,0.16278745920411367,0.0064454127089567962,-0.018787431680074997,-0.6354370175604005,-0.23898753432665293,0.712605348467236,-0.17691346044408099,-22656.045242711094,-111611.60241769483,17698.067327787237,-140612.20379022881,195788.47317747242,109573.85481938829,48531.71364560823,802058.39101343427,2087330.8056135441,2692946.1865454526,1.0086695308057751,25905.243300081383,-0.18953303643256506,-8.6091363913313383,-3.7447219985152285,-0.62908003465330209,-0.17660936824745471,0.091352368908834219,0.041886201679590028,-0.048046590519777221,0.074031793705701274,199.6417534238611,0.63075714190764964,13176.296950672398,0.16271525327510353,0.006441651137366675,-0.018777963390246361,5985.4338674627252,207.41098812628053,0.039980950272052673,15.514807144126079,9.0014493526435945e-06,-0.89068552291255976,4535.1488871359434,4535.3638752109428,1813.0348423468927
2.8416666666666592,0.00020721760124999932,6286902.3268344672,1109891.812324364,567.37955987528744,-97.683793570245626,452.59296298932958,198.86756592499913,0.14744841393564218,0.013964606498571785,-0.015195324697205501,-0.6342889372107382,-0.24355024084795215,0.71100838759057239,-0.18118470435119888,-22872.8582588182,-113960.85865814897,-3685.8846702118194,-153758.82959917426,188760.60112055496,117697.31765993372,48531.638931530833,802058.22272537451,2087330.1803173756,2692945.421040514,1.0472137688562619,25905.152134704909,-0.19677603930509271,-8.1956760658024983,-3.5205155474283076,-0.57820988465983358,-0.1930512813241658,0.088668784916727583,0.044578102923422597,-0.044448948205563103,0.07559757385062027,199.65752646356771,0.6307952599281017,13180.462621043764,0.14737620561425432,0.013960864567416948,-0.015185866875526819,5984.0065525643085,207.36124337571522,0.045975666629339558,15.514811477499595,9.3457331440182825e-06,-0.89068619026012152,4535.126097399715,4535.3493079079572,1812.9974853076801
2.9249999999999923,0.0002132943637499993,6286894.1585748941,1109929.5164819763,583.94990862141356,-98.348117278216378,452.31061921922299,198.82142908273514,0.13076625807153511,0.021233839195567823,-0.011382964119806639,-0.63346968016149297,-0.24751666988268053,0.70934577985143854,-0.1851492021404321,-23682.773776812566,-116096.99396739141,-28128.191846917001,-166295.13949424718,180674.24845976668,125142.25949809821,48531.564202120244,802058.05440271529,2087329.5548907151,2692944.6553763482,1.0857660735500614,25905.060950290354,-0.20402055295257182,-7.741134739211728,-3.2472672881817579,-0.53129432323672898,-0.20876549600365937,0.08541968281807763,0.047151101791778074,-0.040369482652816341,0.076987617704073197,199.67663329576928,0.63084341681446621,13185.157250782568,0.13069404038337654,0.021230126123454547,-0.011373566634513568,5982.5192424032903,207.30943987135836,0.051600738589428811,15.514815811775776,9.6900886513875669e-06,-0.89068685774669532,4535.103302986462,4535.3347376153952,1812.9601206018651
3.0083333333333253,0.00021937112624999928,6286885.9365771851,1109967.1981147164,600.51657279524841,-98.973007305013056,452.05301308042306,198.77922468259436,0.11280910159500496,0.028203234554675757,-0.0073629865263220452,-0.63298964625406029,-0.25084919856307164,0.70764608167034448,-0.18877449619064637,-24601.116786741579,-117955.36473599912,-55467.559493282359,-178016.3251338877,170826.26350700195,131677.0599004484,48531.489456539326,802057.88604357222,2087328.9293266099,2692943.8895444307,1.1243268747832185,25904.969745824739,-0.21126665818151333,-7.250299705221332,-2.9273869209332641,-0.47996903078627035,-0.22349493174461441,0.081244343857030735,0.049526509713275241,-0.035840145359874905,0.078179665608669083,199.69789415200822,0.63089791289991193,13190.220399649696,0.11273686786189541,0.028199559414337882,-0.0073536980785573565,5980.9753720284461,207.25570165454562,0.056825825658736819,15.514820147003176,1.0034519732945109e-05,-0.89068752537975915,4535.0805036408428,4535.3201641700425,1812.922747810893
3.0916666666666583,0.00022544788874999925,6286877.6642476702,1110004.8594422245,617.0799088470161,-99.555638944710608,451.82389521371226,198.74168021654859,0.093668656811480039,0.034782993426981164,-0.0031549781178064266,-0.63285600970959399,-0.25351326264176099,0.70593842875830748,-0.19202924631792942,-25310.459427966194,-119479.41634902272,-85501.549877253856,-188741.67802542393,158884.91988172257,137066.22777178336,48531.414694054045,802057.71764629264,2087328.3036189307,2692943.1235372545,1.162896550670582,25904.878520414815,-0.21851442605053525,-6.7276479505753404,-2.5642003124605508,-0.41956930127354852,-0.23701136727447966,0.075959714054981212,0.051622188788054593,-0.030897346232560775,0.079148834151436809,199.72117808799882,0.63095836473496558,13195.629621369371,0.093596400798932944,0.034779365371177977,-0.0031458457588994402,5979.3786815809881,207.20016306399833,0.061578093506501924,15.514824483224388,1.0379029771834834e-05,-0.89068819316587122,4535.0576991389535,4535.3055874287775,1812.8853665677395
3.1749999999999914,0.00023152465124999923,6286869.3452136079,1110042.5029842781,633.64033579887939,-100.09353202576027,451.62670428504731,198.70952171574996,0.0734532020017922,0.040881434143723923,0.0012145705648751199,-0.63307163917910658,-0.25547814940008934,0.70425258843370053,-0.19488331516735213,-25746.848709055728,-120628.63129447162,-117974.06287778613,-198321.5199981583,144949.06816080605,141079.63782970677,48531.339913976306,802057.54920932674,2087327.6777619347,2692942.3573477846,1.2014754557043601,25904.787273223326,-0.22576392317702271,-6.1773023945523118,-2.1619837505779689,-0.35085928483413237,-0.24912349354778471,0.069590021939766933,0.053352386677070561,-0.025583962607100184,0.079868218970072721,199.74638301725358,0.631024482267182,13201.365880840067,0.073380918070452009,0.0408778626274389,0.0012235020629999657,5977.733181018958,207.14296740384589,0.065779423158750031,15.514828820479329,1.0723621939700511e-05,-0.89068886111117929,4535.0348892709035,4535.2910072574387,1812.8479765283505
3.2583333333333244,0.0002376014137499992,6286860.9832945345,1110080.1315311056,650.19833026294782,-100.58455306842411,451.46447747573825,198.68340227199573,0.052286768467977397,0.04640974003563076,0.0057118710274208177,-0.63363478128746198,-0.25671749978819752,0.70261842816299247,-0.1973079665169474,-25850.948469467166,-121360.4564203901,-152586.23020988982,-206612.7391722163,129160.89464510429,143495.96380907056,48531.265115668095,802057.38073123805,2087327.0517502963,2692941.5909694983,1.2400639185044187,25904.696003474222,-0.23301521131947406,-5.6034598527586175,-1.7260885425706487,-0.27482162668902388,-0.25964624309617351,0.062182521482521472,0.054628002089993161,-0.019949327138484858,0.080309674087163566,199.77338547625305,0.63109590986797959,13207.406962098901,0.052214451705691098,0.046406235018787018,0.0057205598056245845,5976.0431167128863,207.08426567726482,0.069352994047808494,15.514833158805008,1.1068299177225253e-05,-0.89068952922138334,4535.0120738420883,4535.2764235316326,1812.8105773737316
3.3416666666666575,0.00024367817624999918,6286852.5824731216,1110117.7481062564,666.75441963139542,-101.02692149302032,451.3397632620339,198.66388483451993,0.030308370867439455,0.051283967097775447,0.010295708397554882,-0.63453884333941524,-0.25720979091962537,0.70106535056877251,-0.19927607478180562,-25571.367632899288,-121631.66918231735,-188997.27357592288,-213484.13121251902,111707.77513065941,144114.18623028486,48531.190298545764,802057.21221071237,2087326.4255791481,2692940.8243964319,1.2786622395662555,25904.604710458025,-0.24026834694941712,-5.0103954770389567,-1.2628783984303877,-0.19263193479142493,-0.26840752630009657,0.053809749744206298,0.055360705042216289,-0.014049044258344997,0.080444770902675336,199.80204405805446,0.63117223690378099,13213.7279650855,0.030236017196510496,0.051280539212772619,0.01030411613356607,5974.3129363246144,207.02421526693658,0.072225026187700159,15.514837498235289,1.1413064174808824e-05,-0.8906901975016982,4534.989252674477,4535.2618361375644,1812.7731688120509
3.4249999999999905,0.00024975493874999943,6286844.1468654638,1110155.3559224629,683.30917393086554,-101.41921693836122,451.25454084040445,198.65142746464812,0.0076706625861686379,0.055427213363311426,0.01491767564450925,-0.63577227753117915,-0.2569387857634115,0.69962172150310198,-0.20076234281925809,-24867.913364197117,-121399.97964336367,-226826.50229615803,-218821.87072237392,92822.498612085998,142765.45856343926,48531.115462083457,802057.04364656552,2087325.7992441063,2692940.0576232141,1.3172706895661626,25904.513393535901,-0.24752338093441875,-4.4024845042712624,-0.77963219103782722,-0.10562543678268718,-0.27525527916536618,0.044571026637525511,0.055467542583430868,-0.0079446439463922245,0.080245908587255207,199.83220378086364,0.63125301124442024,13220.301929466033,0.007598268841611854,0.05542387403242368,0.014925768155589977,5972.5472518670977,206.96297856290394,0.074326896461831687,15.514841838800679,1.1757919356367735e-05,-0.89069086595682256,4534.9664256076694,4535.2472449727011,1812.7357505803793
3.5083333333333235,0.00025583170124999968,6286835.6806906909,1110192.9583311654,699.86319657224317,-101.76038899698224,451.21014915566883,198.64637166663158,-0.015461998608890269,0.058771876008909214,0.019522804335974527,-0.63731858169284139,-0.25589392897319957,0.6983143074897834,-0.20174352653492664,-23714.569389745953,-120625.81739903701,-265656.65324246173,-222534.85121394819,72781.509385751197,139324.73747567661,48531.040605815695,802056.87503774953,2087325.1727412937,2692939.2906450937,1.3558895079940501,25904.422052142756,-0.25478035828714585,-3.7842377077099827,-0.28441056166383388,-0.015256681306004511,-0.28006451322134901,0.034592910124200293,0.054875844948589637,-0.0017030433430134768,0.079687534941543972,199.86370130962561,0.63133775544967941,13227.100575154498,-0.015534434633099755,0.058768637498258072,0.019530552146168882,5970.7508010065048,206.90072154340393,0.075597582778508837,15.514846180528199,1.2102866867695365e-05,-0.89069153459091599,4534.943592499686,4535.2326499462915,1812.6983224459877
3.5916666666666566,0.00026190846374999992,6286827.1882376838,1110230.5587645795,716.41710101825731,-102.04986749298311,451.20712458733516,198.64825881676916,-0.038920097290457742,0.061282988138672619,0.024050941753784853,-0.63915654554765722,-0.25407061377075313,0.69716764524928498,-0.20219868426699888,-23165.113569765035,-119357.28123635116,-304704.50801970763,-224678.60087708407,53544.81904398794,133749.9863132094,48530.965729352632,802056.70638338756,2087324.5460674823,2692938.5234581116,1.3945188946790925,25904.330685808687,-0.26203931656996826,-3.1635465389251562,0.2106832137653383,0.054400637224908455,-0.28289313914640479,0.024815824003209676,0.053540716730383291,0.0046055881380000626,0.078747420772252871,199.895713615803,0.63142390899357448,13234.008115712715,-0.03899257683108473,0.061279863538093636,0.024058320586961245,5968.9284042187219,206.83761222832902,0.076032488024687053,15.514850523440458,1.2447908506311102e-05,-0.89069220340746214,4534.9207532316077,4535.218050982322,1812.6608842139394
3.6749999999999896,0.00026798522625000017,6286818.6738163484,1110268.1606581921,732.97138300028291,-102.28761934962847,451.24511101958058,198.65536715671331,-0.062534938601716911,0.062979030663274704,0.028438540194436417,-0.64126191460565563,-0.25146977125960801,0.69620241141983641,-0.20210965675131506,-22557.23514870138,-117507.48281852734,-343765.30187093653,-225117.61839456801,34209.817243192767,126007.64989784511,48530.890832526355,802056.53768310312,2087323.9192213512,2692937.7560606278,1.4331589330436998,25904.239294342133,-0.26930027149722718,-2.5426255729163665,0.69934040946964315,0.11618291022651311,-0.28356124787434267,0.014816580277504361,0.051416473958315771,0.010913218380130284,0.077407861656153654,199.92631520208963,0.6315054294231166,13240.762536715565,-0.062607461975660236,0.062976033785352659,0.02844553112226612,5967.0849033025952,206.77381849594136,0.075642343887526248,15.514854867547211,1.2793045046630762e-05,-0.89069287240796247,4534.897907752219,4535.2034480480525,1812.6234358002816
3.7583333333333226,0.00027406198875000042,6286810.1417362094,1110305.7674007285,749.52647145797243,-102.47372178820291,451.32330582822397,198.66760532409324,-0.086121723444708212,0.063827464151762187,0.032618891697200655,-0.64360711053542585,-0.24809828502574899,0.69543548735949701,-0.20146119019945613,-21506.483097620719,-115021.99302342313,-382518.76532387198,-223804.62360380468,14476.738577574875,116146.71541169299,48530.815915328662,802056.36893687863,2087323.2922028538,2692936.9884525808,1.4718096265200715,25904.147877736792,-0.27656322372359254,-1.9247896586449429,1.1741452971380293,0.17732983297324903,-0.28199899957792401,0.0044693732822334922,0.048486325538881103,0.017148623420213924,0.075656819838417544,199.95529473183228,0.6315816891893119,13247.328590573574,-0.086194290110467933,0.063824609353003076,0.032625481330110312,5965.2251316193078,206.70950702997197,0.074380032507041699,15.514859212848945,1.3138276527448457e-05,-0.89069354159249203,4534.8750560590188,4535.1888411418877,1812.5859772009164
3.8416666666666557,0.00028013875125000066,6286801.5962850833,1110343.3822846182,766.08279045581503,-102.6086346630625,451.44018876245718,198.68487691339587,-0.10949566845130744,0.063806526955240014,0.036525187828888389,-0.64616055266330608,-0.24396950716546598,0.69488055477103083,-0.20024094075986265,-20037.720983801071,-111887.90311336701,-420499.11649466405,-220777.31070871116,-5299.943439575276,104300.78590015459,48530.740977809044,802056.20014482597,2087322.6650124216,2692936.2206344926,1.5104709489730264,25904.056436055638,-0.28382816834213254,-1.3149736685009825,1.6263328529208396,0.23681240392993425,-0.27824400717664316,-0.006030046347165593,0.044764663283113258,0.023238185170621921,0.073488958826040063,199.98256650411585,0.63165245733885489,13253.687688793509,-0.10956827707393768,0.06380382888208519,0.036531368640996216,5963.3538844600535,206.64484230395331,0.0722256246857374,15.514863559342807,1.3483602721480499e-05,-0.89069421096061063,4534.8521981671065,4535.1742302734765,1812.5485084405927
3.9249999999999887,0.00028621551375000091,6286793.0416948777,1110381.0084453525,782.64075255497323,-102.69324523688995,451.59351675953974,198.70700363247889,-0.13247693730737664,0.062911262295602857,0.040092872749520364,-0.64888723533372494,-0.23910311307175214,0.69454788274491763,-0.19843965257705984,-18193.034914742533,-108103.93957954619,-457234.07582200924,-216110.39963294449,-24756.153126972498,90676.842419252498,48530.666020068013,802056.03130717168,2087322.0376509081,2692935.4526074086,1.5491428481240339,25903.96496942357,-0.29109509553188129,-0.71849776488204598,2.0473684360343798,0.29370086767826464,-0.27238226871576882,-0.016474116869098828,0.040294233274486113,0.029107511767072346,0.070906444353089182,200.00809521810342,0.6317176614710498,13259.828022237312,-0.13254958584809329,0.062908735560626067,0.040098643300570468,5961.475874834302,206.57998507898094,0.069178754300808817,15.514867907022962,1.3829023166510257e-05,-0.89069488051142187,4534.8293341071367,4535.1596154624167,1812.5110295695615
4.0083333333333222,0.00029229227625000116,6286784.4821046637,1110418.6488023673,799.20075237560684,-102.72889921263122,451.78035460353772,198.73373504905061,-0.15489465631217672,0.061154220275786014,0.043262044054137951,-0.65174943475656755,-0.23352479182011018,0.69444418637747241,-0.19605131447251134,-16030.274162968901,-103681.59823831261,-492256.1454016316,-209914.37803880594,-43531.257551679206,75552.259402929878,48530.591042250395,802055.86242424266,2087321.4101195384,2692934.6843728223,1.5878252488489455,25903.873478019206,-0.29836399117903628,-0.14103609596436281,2.4292232939579619,0.34719906779088999,-0.26454731139966442,-0.026651173473559497,0.035146884129755432,0.034683142620874623,0.067919480117329206,200.03190077018596,0.6317774024827888,13265.745279111638,-0.15496734213809144,0.061151879075833616,0.043267409090130673,5959.5956868077255,206.51509084058242,0.065260122786362992,15.514872255881032,1.4174537196036156e-05,-0.89069555024363389,4534.8064639232825,4535.1449967369426,1812.4735406602331
4.0916666666666597,0.00029836903875000141,6286775.9215213098,1110456.3060034369,815.76316108298295,-102.71742780575137,451.99712846299235,198.76476091438457,-0.17659077164412593,0.058565485814571057,0.0459798596207798,-0.65470749491081537,-0.22726578185617577,0.69457257957321072,-0.19307328196806997,-13620.537310034264,-98645.796555313093,-525114.41284942685,-202332.50133383606,-61281.676906171786,59268.110099122765,48530.516044537748,802055.69349644764,2087320.7824198406,2692933.9159326032,1.6265180571743514,25903.781962065517,-0.30563483762724514,0.4114473833159375,2.7646456814330591,0.39667157092324734,-0.25491699073539226,-0.036353915302342291,0.029422782495861166,0.039894338287095807,0.064546525899603691,200.05406145524483,0.63183196425619037,13271.443154446837,-0.17666349165192424,0.058563343507389044,0.045984830043606088,5957.7177270574275,206.45030819660056,0.060512101815064896,15.514876605906496,1.4520143974231879e-05,-0.89069622015562655,4534.7835876709269,4535.1303741324546,1812.4360418033914
4.1749999999999972,0.00030444580125000165,6286767.3637781208,1110493.982374456,832.32832198468918,-102.66116805323026,452.23970134353294,198.79972537918238,-0.19742354961341535,0.055191988386075613,0.048202817883848163,-0.65772066036927868,-0.22036225875238297,0.69493262177733472,-0.18950635617474082,-11044.732901805623,-93034.95287808869,-555386.31435448385,-193536.06277707239,-77694.234114958788,42218.853211553986,48530.441027140092,802055.52452426043,2087320.1545535792,2692933.1472889096,1.6652211645427382,25903.690421819887,-0.31290761447437782,0.93279693006204678,3.0474131403224285,0.44166167546282359,-0.24370788825308426,-0.045388103747598593,0.023247987652093689,0.044674873585770082,0.060814161721317365,200.07471524191925,0.63188181725381642,13276.933605452727,-0.19749630036004726,0.055190057045877879,0.048207410585325697,5955.8461753995898,206.38577725863621,0.054998308333821154,15.514880957087179,1.4865842533919901e-05,-0.89069689024552556,4534.7607054141381,4535.1157476899043,1812.3985331040517
4.2583333333333346,0.0003105225637500019,6286758.8124921555,1110531.6798763466,848.8965473633325,-102.56297361574231,452.50346828261627,198.83824228547991,-0.21727052328937632,0.051096096426659632,0.049898774537300267,-0.66074792066688981,-0.21285459025870904,0.69552045409591234,-0.18535481292481901,-8389.4383033820523,-86900.433540609709,-582688.75470952445,-183718.07752127692,-92498.362859010289,24838.765848454841,48530.365990287151,802055.3555081978,2087319.5265226797,2692932.3784440984,1.7039344523831765,25903.598857563102,-0.32018229943988785,1.4167944255224674,3.2725516031389246,0.48189908198905518,-0.23116743728831221,-0.053580893871017894,0.016770403129111995,0.04896474532356216,0.056756583449739162,200.0940588994726,0.63192761532842545,13282.236821154107,-0.21734330112256658,0.05109438640173556,0.049903012098888332,5953.9849352512483,206.32162803646284,0.048802101863750842,15.514885309409781,1.5211631817613648e-05,-0.89069756051128079,4534.7378172229774,4535.1011174540772,1812.3610146770638
4.3416666666666721,0.00031659932625000215,6286750.2710211379,1110569.4000706123,865.46811659777131,-102.42621367741721,452.783467968352,198.87991065017349,-0.23603070712204632,0.046353549982801251,0.051048565309495933,-0.66374882999106954,-0.20478648233173796,0.69632901619385024,-0.18062637832327769,-5742.3559540131546,-80305.351543850251,-606687.99484772282,-173085.65920470137,-105476.32382557797,7585.7537376345254,48530.290934219243,802055.18644880143,2087318.8983291548,2692931.6094006323,1.7426577967343291,25903.507269588623,-0.32745886922785539,1.8573143146326228,3.4365084021836991,0.51729683005218829,-0.21756410510801416,-0.060788189500641389,0.010154261278612461,0.052711705829624367,0.052414739969434014,200.11234489433784,0.63197018549970307,13287.380893134499,-0.23610350830369012,0.046352069479316527,0.051052475575218616,5952.1375852002921,206.25797888169211,0.042024041698093643,15.514889662860353,1.5557510718505207e-05,-0.89069823095074674,4534.7149231707535,4535.0864834718313,1812.3234866425946
4.4250000000000096,0.0003226760887500024,6286741.7424210031,1110607.1440947314,882.04327555188218,-102.25475816505482,453.07450649092164,198.92432946007906,-0.25362593576408682,0.041050834369330803,0.051647122563589852,-0.66668426774808764,-0.1962040475232541,0.69734833183301004,-0.1753321503957756,-3187.7110881290537,-73322.750035627774,-627107.78108781227,-161851.49044979061,-116470.69860159258,-9076.6021984283689,48530.215859178301,802055.01734661649,2087318.2699750266,2692930.8401609887,1.7813910729200206,25903.415658191294,-0.33473730040500771,2.2484952363944557,3.5372689465443536,0.54793800394296543,-0.20317614833411488,-0.066900467132168226,0.0035734309465907535,0.055872540873767716,0.047835147373394907,200.12987613444164,0.6320105109560562,13292.40119553809,-0.25369875658035135,0.041049589084766226,0.051650738099822166,5950.3073328997671,206.19493501703846,0.034778431079372951,15.514894017424885,1.5903478122697477e-05,-0.89069890156176412,4534.6920233312567,4535.0718457903349,1812.2859491216025
4.5083333333333471,0.00032875285125000264,6286733.2294052998,1110644.9126481963,898.62223713929654,-102.05294834054392,453.37128823048306,198.97111097680468,-0.27000123247026125,0.035282139843097159,0.05170400211436222,-0.66951710990360613,-0.18715483327009894,0.69856584821818002,-0.16948647035435854,-801.94200671234523,-66033.254747517552,-643735.29977346037,-150224.88381855699,-125388.63024277138,-24697.740589230201,48530.140765399032,802054.84820217115,2087317.641462255,2692930.0707275681,1.8201341601020489,25903.32402365674,-0.34201757025896951,2.5849173974787014,3.5744105465077243,0.57405356877221159,-0.1882796124809199,-0.071846631189920532,-0.0027960479940205086,0.058414025000462701,0.043068439019450191,200.14699880169186,0.63204970805310823,13297.339503973732,-0.27007406932339395,0.035281132670298053,0.051707359575606099,5948.4969726558566,206.13258719387591,0.027189155555913981,15.514898373089769,1.6249532949253688e-05,-0.89069957234223829,4534.6691177760858,4535.0572044553528,1812.2484022314491
4.5916666666666845,0.00033482961375000289,6286724.7343076458,1110682.7059895725,915.20518291133283,-101.8255527815102,453.66854852121151,199.01989189418086,-0.28512417243945443,0.029146082751568641,0.051243273510262102,-0.67221278757311043,-0.17768685156855385,0.69996681268635252,-0.16310675075100942,1349.998268505052,-58522.325615212285,-656424.68547985377,-138402.98402592613,-132202.5381394788,-38858.455461365673,48530.065653100653,802054.67901595891,2087317.0127926674,2692929.301102608,1.8588869455227477,25903.232366251279,-0.34929965759426868,2.8617737849069513,3.5490912391960268,0.59599340805802148,-0.17313634320696841,-0.075595630670993577,-0.0087837215520506044,0.06031350762210088,0.038167729292419572,200.16409365882254,0.6320889985393956,13302.242902732127,-0.28519702191779012,0.02914531357032997,0.051246412934375353,5946.7088479233562,206.07101051400906,0.019385083492251952,15.514902729842301,1.6595674188810278e-05,-0.89070024329021225,4534.6462065721053,4535.0425595096267,1812.2108460817412
4.675000000000022,0.00034090637625000314,6286716.2590484284,1110720.523944499,931.79226546840493,-101.57770975310393,453.96118274244964,199.07034188526646,-0.29898327186646423,0.022742378853950976,0.050302768700642216,-0.67473971755795603,-0.16784765274641222,0.70153466983617818,-0.15621327099569382,3217.4769448940747,-50877.272878884149,-665097.97549550352,-126562.66670411039,-136947.32240019523,-51187.790598697728,48529.990522479253,802054.50978842133,2087316.3839678939,2692928.5312881083,1.8976493284503895,25903.140686212599,-0.35658354347497995,3.0750236375434397,3.4639760200753558,0.61419310679825856,-0.15798280092654093,-0.078155763927848954,-0.014232256583370002,0.061559107382300006,0.033186881529842602,200.18156632885012,0.63212967859314262,13307.162544786599,-0.2990561307907828,0.022741844421797133,0.050305732759807521,5944.9448199122435,206.01026345311467,0.011495330830568437,15.514907087671119,1.6941900938542207e-05,-0.89070091440393584,4534.623289779126,4535.0279109913872,1812.1732807705225
4.7583333333333595,0.00034698313875000338,6286707.8051068177,1110758.3659241241,948.38361146574084,-101.31485788276166,454.24436686844882,199.12216929781351,-0.31158549793401924,0.016168658024413814,0.048932726431513043,-0.67706959861049154,-0.15768348433728496,0.70325146296095553,-0.14882895298952095,4765.9924821444911,-43184.222231201384,-669743.57113428309,-114853.64135376333,-139714.35557624363,-61377.521323677669,48529.915373700984,802054.34051993256,2087315.7549893151,2692927.7612857604,1.9364212236667151,25903.048983741584,-0.36386921187822541,3.2215181410309106,3.3231071083280481,0.62913920831690695,-0.14302041596549026,-0.079571799153425229,-0.019004259221714212,0.062149517902706938,0.028178775587795274,200.19983711077373,0.63217308645749548,13312.152338307114,-0.31165836338008168,0.016168351972228625,0.048935559666325096,5943.2062432046241,205.95038711492123,0.003644696200584276,15.514911446566597,1.7288212433507987e-05,-0.89070158568192703,4534.6003674478297,4535.0132589330306,1812.1357063808698
4.841666666666697,0.00035305990125000363,6286699.373498938,1110796.2309530799,964.97932497358818,-101.0426577864727,454.51366521114966,199.17512398189157,-0.3229530520865237,0.009517591952793945,0.047193908741757426,-0.6791775763093516,-0.14723857149196765,0.70509822550655599,-0.14097913069339657,5977.9041429466888,-35525.214519684603,-670412.42136370612,-103393.17100663831,-140642.80467141885,-69193.444658570661,48529.840206896173,802054.17121078551,2087315.1258580065,2692926.9910968859,1.9752025645226734,25902.957258995055,-0.37115665027101158,3.2990908463811692,3.1317283200446533,0.64133556259925917,-0.12840809398317193,-0.079920217848467229,-0.022987948575274201,0.062093452554466008,0.023193667641483798,200.21933090722951,0.63222057049805813,13317.267635327009,-0.32302592138516312,0.0095175048847600304,0.047196656805126851,5941.4939491326122,205.89140473762237,-0.0040504528868673248,15.514915806521181,1.7634608073849398e-05,-0.89070225712302253,4534.5774396179731,4534.998603359968,1812.0981229779516
4.9250000000000345,0.00035913666375000388,6286690.9647628702,1110834.117705781,981.57949095945594,-100.76690779103944,454.76512203633985,199.22899743783489,-0.33311962313744209,0.002874475339746916,0.04515529791026502,-0.68104228770561326,-0.13655454830608282,0.70705535100049033,-0.13269132720415419,6852.1230739998873,-27975.60835184035,-667212.27275092516,-92262.689720523354,-139909.00813855213,-74482.948843651495,48529.765022154432,802054.00186118169,2087314.4965747043,2692926.220722388,2.0139933054087922,25902.865512079981,-0.37844585007212567,3.30660848544641,2.8960759630410875,0.65127301575284824,-0.11425729690754803,-0.079303026331261323,-0.026101362130495749,0.061408777090177655,0.018277724658367665,200.24046779921767,0.63227345937499713,13322.563993393807,-0.33319249385488747,0.0028745950312035386,0.045158006845529987,5939.8082373009238,205.83332146655613,-0.011485612151652065,15.514920167529688,1.7981087447458762e-05,-0.89070292872642365,4534.5545063168829,4534.9839442896673,1812.0605306065611
5.0083333333333719,0.00036521342625000413,6286682.5789507674,1110872.0245496074,998.18417868283825,-100.49345711597259,454.99533482194715,199.28362063809223,-0.34212633416567523,-0.0036846395065272619,0.042891504446184454,-0.68264580366857452,-0.12567006052405003,0.70910293318399564,-0.12399505139892354,7402.8937326145588,-20601.921580238777,-660300.42243137571,-81506.447043856489,-137714.73521381771,-77178.61298528708,48529.689819520579,802053.83247122169,2087313.8671397669,2692925.4501627111,2.0527934239050158,25902.773743048514,-0.38573680705632302,3.2439812527672514,2.6231497335348686,0.65940413578370893,-0.10062990668903486,-0.077840662898241444,-0.028294898209463796,0.06012139510490877,0.013471799962768113,200.26365471714459,0.63233303574811595,13328.09607006131,-0.34219920406775872,-0.0036843278247334979,0.042894220020179362,5938.1488753484218,205.77612439687732,-0.01857072781002379,15.514924529589518,1.8327650348583508e-05,-0.89070360049173158,4534.5315675582333,4534.9692817308714,1812.0229292891154
5.0916666666667094,0.00037129018875000437,6286674.2156282291,1110909.9495933824,1014.7934448274785,-100.22811981963065,455.20150805101275,199.33885999105445,-0.35001761596452141,-0.010094200001695681,0.040480027795245864,-0.68397349163519239,-0.11462055008177456,0.71122107157959336,-0.11492162364189774,7657.8567390956714,-13460.204948507666,-649875.46315728989,-71132.153636157294,-134275.17432725904,-77297.867748947203,48529.614598991568,802053.66304089804,2087313.2375531513,2692924.6794178071,2.091602922270174,25902.681951894163,-0.39302952164019306,3.1121348366303954,2.3204768932625131,0.66612401865616044,-0.087538854640437591,-0.075664551338748498,-0.029552137924496704,0.058263961337450348,0.0088104963811951459,200.28927853883994,0.63240051455622859,13333.91669474718,-0.35009048296901735,-0.010093713287662566,0.040482794902500452,5936.5151067442512,205.71978287975313,-0.025231851759803532,15.514928892700866,1.8674296791981153e-05,-0.89070427241897487,4534.5086233410957,4534.9546156829847,1811.985319024091
5.1750000000000469,0.00037736695125000462,6286665.8738806909,1110947.8907395189,1031.4073362380959,-99.976592507071786,455.38148749105983,199.39461197429151,-0.35683723045386601,-0.016299792917546376,0.037998511265387787,-0.68501382402043376,-0.10343822171966013,0.71339014110015175,-0.10550403674496295,7655.6185882012596,-6594.9940392550388,-636168.5216612994,-61113.460965836537,-129807.44017038558,-74939.001913737913,48529.539360514129,802053.49357009039,2087312.6078143944,2692923.9084871118,2.1304218287695376,25902.590138549083,-0.40032399911850824,2.9129491719767975,1.9958816950344347,0.67175756151169852,-0.074951293596730306,-0.072909819644656038,-0.029889018881007562,0.055874501498147419,0.0043215418004464998,200.31770080940746,0.63247702648114801,13340.076144783663,-0.35691009257543743,-0.016299149909368187,0.038001373414564922,5934.9056661552613,205.6642490802237,-0.031411852952367703,15.514933256866833,1.9021027024033984e-05,-0.89070494450863102,4534.4856736492202,4534.9399461356215,1811.9476997848521
5.2583333333333844,0.00038344371375000487,6286657.5523264296,1110985.8457382356,1048.0258921730788,-99.744378296122861,455.53377582437514,199.45079697172571,-0.36262464234802244,-0.022258197343513492,0.03552212236199153,-0.68575815789794725,-0.09215218223766386,0.71559102725416235,-0.095776854712311843,7443.0601976367334,-38.839861658320295,-619434.46774266497,-51393.993710465664,-124520.27047205706,-70274.006679330079,48529.464103983082,802053.32405856135,2087311.9779225974,2692923.1373695307,2.1692501983693209,25902.498302882053,-0.40762024981271477,2.6491708191981207,1.6572698777561967,0.67655300455345391,-0.062793924029192191,-0.069708627244315882,-0.02935154275111589,0.052995015028526625,2.5480697887584524e-05,200.34925414056772,0.63256360677156265,13346.621634553416,-0.36269749764013576,-0.022257418115817728,0.035525121250553265,5933.3188016932463,205.60945876434121,-0.037070240672212561,15.514937622093523,1.9367841530049725e-05,-0.89070561676164084,4534.4627184505271,4534.9252730682738,1811.9100715188097
5.3416666666667219,0.00038952047625000511,6286649.2491403911,1111023.8122430737,1064.6490936688108,-99.53654251986795,455.65755752872076,199.50542561118431,-0.36741140895656554,-0.027877611862234669,0.033121382141805454,-0.68620098500591897,-0.080788676267569234,0.71780487594787012,-0.085776208993539327,4805.9596639197753,6196.7499287385035,-600053.2002878791,-41875.341492266256,-115369.04328120234,-63541.093328724979,48529.388829299081,802053.15450608812,2087311.3478769653,2692922.366064081,2.2080880810184893,25902.406444777636,-0.41491828311869522,2.328570287554665,1.3130661106104857,0.6341021003043581,-0.050939559483638222,-0.064633998208474167,-0.02800286798389804,0.049671468639947716,-0.0040643449018400828,200.38230478826875,0.63265507861607251,13353.339049850312,-0.36748425545854024,-0.027876717365931676,0.033124557223495478,5931.752308011577,205.55533244385018,-0.042134523153533943,15.514941988386715,1.9714740768724672e-05,-0.89070628917889372,4534.439757714711,4534.9105964615737,1811.8724341762925
5.4250000000000593,0.00039559723875000536,6286640.9620939372,1111061.7878671973,1081.2766996485486,-99.357813877238868,455.7526582170899,199.55655032650273,-0.371217060805346,-0.033073320687512335,0.030860963474059609,-0.68634174990485697,-0.069371305985129111,0.72001133845283138,-0.075540034040359513,2174.3191931811812,12109.847441365235,-578210.65505858697,-32444.502505043594,-106220.9373522914,-55037.332399835745,48529.31353659444,802052.98491297045,2087310.7176786663,2692921.5945721781,2.2469354061200431,25902.314564407148,-0.42221808580426662,1.9515477971824966,0.97024630836192716,0.59322950377167172,-0.039240366057214329,-0.059568657839702041,-0.025929687533938008,0.04595805478414302,-0.0079417169277581044,200.41521654403178,0.63274625452021827,13360.014263063398,-0.37128989651404298,-0.03307233227669476,0.030864351201909567,5930.2035752325392,205.5017770262518,-0.046523531835978987,15.51494635573874,2.0061724131095059e-05,-0.89070696175920883,4534.4167914821282,4534.8959163413138,1811.8347878234524
5.5083333333333968,0.00040167400125000561,6286632.688572119,1111099.7702339147,1097.9084263506018,-99.212652529151271,455.81950060784874,199.60434999666168,-0.37404923688679043,-0.037850744500627247,0.028796872930883191,-0.68618258287777156,-0.057921898818207043,0.72219075736767013,-0.065107807252237651,-378.48465752148707,17699.299038558649,-554244.21707590052,-22993.924520077504,-97245.332407384238,-45103.36945761813,48529.238226011737,802052.81527952838,2087310.0873288689,2692920.8228952577,2.285792101154509,25902.222661940512,-0.42951964422103384,1.524012251383178,0.63608021418314609,0.5543016292625107,-0.027552275368984712,-0.054620631562377654,-0.023251451983349616,0.041909873309894118,-0.011607250165718262,200.44844397874601,0.63283854511310667,13366.71226348643,-0.37412205972260659,-0.037849683460195419,0.028800506509589513,5928.6696147701568,205.44868678474688,-0.050262828666555084,15.514950724141336,2.0408790960896855e-05,-0.89070763450131407,4534.3938197962734,4534.8812327352989,1811.7971325315814
5.5916666666667343,0.00040775076375000586,6286624.4256092953,1111137.7570262391,1114.5440034093808,-99.105014390017075,455.85908476858299,199.64898510166179,-0.37590308970224989,-0.042222451949259027,0.026974634509638735,-0.68572720044755453,-0.046461223809252661,0.72432526084392612,-0.054520434259865587,-2800.6345857374799,22974.06628204275,-528475.24574248225,-13407.644189641123,-88539.886620034158,-34108.248457747432,48529.16289761848,802052.64560591371,2087309.4568281132,2692920.0510339877,2.3246581323314266,25902.130737456057,-0.43682295200722004,1.0520673596502508,0.31713288191439354,0.51725935888081365,-0.015720221341442082,-0.049859312268788931,-0.020100570544735678,0.037579347842934943,-0.015067651753657993,200.48238544799645,0.63293318067010673,13373.491125561863,-0.37597589747727961,-0.042221339055422795,0.026978543918782214,5927.1471030389166,205.39594491927966,-0.053388032870893817,15.514955093590601,2.0755940947779912e-05,-0.89070830740460827,4534.3708426777348,4534.8665456566878,1811.7594683344325
5.6750000000000718,0.0004138275262500061,6286616.1699314658,1111175.746032452,1131.1831734942446,-99.038343476768461,455.8729265304205,199.69060649872566,-0.37676072751613765,-0.046205771492162824,0.025428436876433917,-0.68498083913315122,-0.035009613473952657,0.72639889951817382,-0.043820266585615879,-5048.4417465087008,27951.708571548181,-501204.77927637089,-3568.3332909316832,-80156.319560929522,-22435.109854800881,48529.087551408556,802052.47589211201,2087308.8261763223,2692919.2789882803,2.3635335038027705,25902.038790942359,-0.4441280099278348,0.54187785312131265,0.0192110761617416,0.48193535349442901,-0.003587519873280287,-0.045327089452410096,-0.01661641907568491,0.033015670476177122,-0.018334807220373964,200.51740034181375,0.63303126599591375,13380.404226898509,-0.37683351791243885,-0.046204626618584932,0.025432648952896309,5925.6324310873661,205.34342529720928,-0.055940041641153571,15.5149594640869,2.1103174120651875e-05,-0.89070898046914726,4534.3478601246497,4534.8518551042926,1811.7217952289507
5.7583333333334092,0.00041990428875000635,6286607.9179991931,1111213.7351864381,1147.825689280025,-99.015556133626177,455.86299509565794,199.72918542730164,-0.37659114887357853,-0.049816005710578704,0.024180750944339618,-0.68395027065272229,-0.023587595023182834,0.7283977457986619,-0.033051120261171539,-7517.2716995423662,32665.919717069035,-472723.17624690203,6650.1375558250829,-71472.251891501772,-10471.148481821076,48529.012187305794,802052.30613795086,2087308.1953728383,2692918.5067573367,2.4024182556959759,25901.946822303242,-0.45143482550775565,0.00036861410178920268,-0.25255175776997085,0.43923463183671441,0.00901290787501937,-0.040737941824881864,-0.012940305324999714,0.028264539084182007,-0.021424790152306812,200.55364579224712,0.6331332653384889,13387.478369182831,-0.37666391943146049,-0.049814847486525947,0.024185289505776336,5924.1217538763112,205.29099418613578,-0.057959406160804125,15.514963835634655,2.1450490831264877e-05,-0.89070965369561261,4534.3248721137861,4534.8371610632576,1811.6841131770518
5.8416666666667467,0.0004259810512500066,6286599.6660554977,1111251.7226032987,1164.4712526337103,-99.03896398650474,455.83165843883279,199.7636128444606,-0.37534909777752645,-0.053033899502720208,0.023242555871323258,-0.68264449643235392,-0.012216509918263896,0.73030939669294359,-0.022258335023622341,-10258.717897841912,37151.796430987975,-443288.1202131366,17357.047946581424,-62438.739512698761,1408.2902167970417,48528.936805238824,802052.13634327007,2087307.564417083,2692917.7343404414,2.4413124241982578,25901.854831454515,-0.45874340555642323,-0.56613327016252635,-0.4939036274226673,0.3872265016527156,0.022225804733152475,-0.036074934009323142,-0.0092032350612648965,0.023369817715946404,-0.024356871207192755,200.59017829490085,0.63323616682872286,13394.593674983631,-0.37542184590160954,-0.053032745024121294,0.023247441742676248,5922.6110436481031,205.23851211744312,-0.059450763626113796,15.514968208238022,2.1797891409345859e-05,-0.89071032708464393,4534.3018786233706,4534.8224635196684,1811.6464221430467
5.9250000000000842,0.00043205781375000685,6286591.4101696052,1111289.70660883,1181.1195056538011,-99.110439158362837,455.78159187784513,199.79375239219419,-0.37298008442045877,-0.055874300260558153,0.022614108719260603,-0.68107508430469799,-0.00091910690037267826,0.73212286731672549,-0.011488774251011934,-12731.295298663736,41432.740804134788,-413142.18190695916,28624.000797108256,-53816.910783007363,12850.005975920902,48528.861405164615,802051.9665079728,2087306.9333086845,2692916.9617371443,2.4802160320016049,25901.762818341937,-0.46605375432587182,-1.1521302847438457,-0.70154154590224338,0.33629663903634172,0.036148173942734653,-0.03170375587453568,-0.0055342897167549171,0.018374116489367133,-0.027152643630079805,200.62701723661493,0.63333999736664381,13401.758943756671,-0.37305280740037772,-0.055873164847109934,0.022619359733003896,5921.0961381284151,205.18583558701695,-0.060448200350274997,15.514972581899498,2.2145376054077959e-05,-0.890711000636627,4534.2788796402774,4534.8077624651341,1811.6087221054202
6.0083333333334217,0.00043813457625000709,6286583.1462755278,1111327.6857625265,1197.7700945653596,-99.231343879060248,455.71571902384329,199.81968680913252,-0.36942135901463485,-0.058360528722992022,0.022285065427573789,-0.67925537703114902,0.0102799556924507,0.73382956474109196,-0.00079069408271608169,-14915.026996427807,45544.082181419639,-382523.413921937,40519.710553162775,-45554.55607137167,23524.636897739212,48528.78598698046,802051.79663182679,2087306.3020467611,2692916.1889463705,2.5191291329943826,25901.670782836645,-0.47336588193110457,-1.7513716557092458,-0.87287422693758676,0.28627254219409054,0.050872168995857177,-0.027594952251481834,-0.0020557558586574856,0.013316411307278888,-0.029835134336449545,200.66439013786942,0.63344544009302617,13409.010944480873,-0.36949405404334962,-0.058359425724987569,0.022290696618645307,5919.5727825612812,205.1328185706534,-0.060996009564068823,15.514976956625063,2.2492945239509153e-05,-0.89071167435248066,4534.2558751331799,4534.7930578796331,1811.571013012823
6.0916666666667592,0.00044421133875000734,6286574.870215157,1111365.6588755455,1214.4226718828425,-99.402530650212398,455.63714463886663,199.84148428593815,-0.36460346179316105,-0.060512926323973933,0.022235364023545062,-0.67720057057075089,0.021353700618954093,0.73542343860548298,0.0097863495856729352,-16797.400256207147,49522.18252173574,-351648.52778914047,53092.982391756777,-37582.705014015926,33137.290466185885,48528.710550520329,802051.62671445741,2087305.670629902,2692915.4159663985,2.558051813699056,25901.578724732644,-0.48067980461560161,-2.3578770641233273,-1.0061411496149735,0.23698041095331351,0.066463605251828317,-0.023705916793827754,0.0011231050983602042,0.0082322547208203249,-0.032427922382865314,200.70250052379421,0.63355310194129888,13416.383364329369,-0.36467612599046928,-0.060511866979850601,0.022241387837693787,5918.0366752550126,205.07931413648058,-0.061132674163702584,15.514981332424346,2.2840599731445225e-05,-0.89071234823368961,4534.2328650514373,4534.7783497307928,1811.533294782239
6.1750000000000966,0.00045028810125000759,6286566.5777797839,1111403.6250229471,1231.0768952113292,-99.62436518527997,455.54908640479113,199.85919899708577,-0.35845250101381765,-0.062347931010243988,0.022436385914894014,-0.67492788004158044,0.032272515911816867,0.73690103792553185,0.020191626075517981,-18372.564644672806,53403.192725172543,-320716.34045169456,66371.133074336525,-29823.931769590006,41432.222714160955,48528.635095557132,802051.45675535279,2087305.0390561856,2692914.6427948815,2.5969841921791486,25901.486643749486,-0.48799554455215838,-2.9659443488147716,-1.1003886020352527,0.18826002104506476,0.082959985722355759,-0.019985460290493754,0.0039079223739755479,0.0031543174270397883,-0.034954357778260427,200.74152966781494,0.63366351950131172,13423.906974121292,-0.35852513145488824,-0.062346924349732789,0.02244281240552486,5916.4835106289393,205.02517596307871,-0.06088970520969153,15.51498570931054,2.3188340577420546e-05,-0.89071302228228422,4534.2098493257763,4534.7636379743326,1811.4955673001198
6.2583333333334341,0.00045636486375000783,6286558.2647494273,1111441.5835503836,1247.7324248963876,-99.896780117973535,455.45481492426586,199.87273436415882,-0.35089218928469529,-0.063873558884311801,0.022852215698711941,-0.6724567058196097,0.043003937686465148,0.7382615370184894,0.030373394620870294,-20083.452752204488,57238.523521500618,-289768.18174236204,80383.915143452643,-21500.485950021528,48189.742747484437,48528.559621806169,802051.28675387101,2087304.4073232119,2692913.8694288847,2.6359264160344007,25901.394539536974,-0.49531312946448641,-3.5722033020923547,-1.1550107707094937,0.13061051820125191,0.10040041777718663,-0.016043092390922026,0.0062184371613898505,-0.001886759390014651,-0.037436895582009549,200.78150328326711,0.63377673855785432,13431.591730023014,-0.35096478303284734,-0.06387261167105579,0.022859052703436758,5914.9090191012829,204.97025974041537,-0.060278319176984445,15.514990087300159,2.3536169090283553e-05,-0.89071369650080923,4534.1868278693582,4534.7489225547488,1811.4578304241168
6.3416666666667716,0.00046244162625000808,6286549.9269159753,1111479.5340786297,1264.3888553751376,-100.21955750662056,455.35765657362543,199.88058919737938,-0.34184207741941142,-0.065045796056672184,0.023440966656126643,-0.66980951108326336,0.053512435429858264,0.73950607376149446,0.040279088701510118,-22212.96511330123,61074.622819210344,-258903.48365272026,95131.340018503863,-12233.562164874173,53233.667542318275,48528.484129007338,802051.11670942744,2087303.7754288344,2692913.0958657735,2.6748786183213373,25901.302411782679,-0.5026325843660141,-4.1722428500874393,-1.170077308202901,0.058039516313543468,0.11878497461136726,-0.011676514822483639,0.0079986637306628441,-0.0068578048161352404,-0.039896599955590147,200.82106664280278,0.6338884480172432,13439.262758799741,-0.34191463157678337,-0.065044912761692525,0.023448219804087757,5913.3089906580808,204.9144239841244,-0.059250619412935954,15.514994466408309,2.3884086469459133e-05,-0.89071437089158945,4534.1638006028461,4534.7342034213252,1811.4200840241808
6.4250000000001091,0.00046851838875000833,6286541.5601170985,1111517.4765019473,1281.0456893715975,-100.59173575480509,455.26081677910452,199.88243058493535,-0.33122778958082488,-0.065858782138093916,0.024156848023200266,-0.66701240314278765,0.063759305174080058,0.7406373129842766,0.049855548064710008,-24025.231543992413,64915.135309658624,-228569.50319618804,110535.20937441598,-3197.2462047821118,56440.822182260985,48528.40861697431,802050.94662160194,2087303.1433714924,2692912.3221036368,2.7138408952813919,25901.210260259093,-0.50995392733995504,-4.7568659859880791,-1.147701717181195,-0.01368214557998571,0.13801524796557899,-0.0074257970203200864,0.0092050240506017511,-0.011725443443826282,-0.04235283279804937,200.85998889001499,0.63399788529184498,13446.895270857958,-0.33130030135573202,-0.065857964929986301,0.024164520623023749,5911.679307980472,204.85753117500894,-0.057833145948879901,15.51499884664581,2.4232093574591111e-05,-0.89071504545629154,4534.1407674694046,4534.7194805377339,1811.3823280071488
6.5083333333334465,0.00047459515125000858,6286533.160295805,1111555.4109744567,1297.7024289254566,-101.01180783807779,455.16732529538524,199.87833707344112,-0.31898140557999649,-0.066320657091690549,0.024950588245726317,-0.66409381542184487,0.073702898106743242,0.7416606125852091,0.059049325727363412,-25529.706911329478,68786.634193937454,-198966.93394349184,126538.64014875321,5642.6863005026535,57719.812049782326,48528.333085476937,802050.77648987586,2087302.5111492421,2692911.5481401002,2.752813366439383,25901.118084682421,-0.51727718083036722,-5.3208106554881907,-1.0901848148477391,-0.084359818260328567,0.15801862981002013,-0.0032513342947543562,0.009801582270989458,-0.016457962957718775,-0.044822890207840665,200.89842163259047,0.63410549625974755,13454.515449716702,-0.31905387233386728,-0.066319905846376745,0.024958681411437863,5910.0160027264692,204.79944971280486,-0.056040195765656442,15.515003228026014,2.4580191467089713e-05,-0.89071572019697254,4534.1177283988336,4534.7047538591014,1811.3445622579441
6.591666666666784,0.00048067191375000882,6286524.7235384779,1111593.3378939196,1314.3585833542265,-101.47784574375054,455.07998979398542,199.8684054912608,-0.30504194599861961,-0.066436462136734042,0.025770469207983399,-0.6610842984318992,0.083298792982381104,0.7425840526561982,0.067806977481517205,-26741.053657888468,72712.019523666895,-170291.71446618787,143066.69890188248,14308.704558985879,57020.758657656632,48528.257534232624,802050.60631361196,2087301.8787596985,2692910.7739722482,2.7917961783636871,25901.02588470485,-0.52460237237100038,-5.8592346939460684,-1.000545754649308,-0.15374808382530222,0.17869907700668344,0.00088052272007634069,0.0097669005012562832,-0.021024537508898291,-0.047321650919295868,200.93651294380498,0.63421171710319635,13462.14877434785,-0.30511436529022268,-0.066435774469290818,0.025778981988640644,5908.3152901763679,204.74005507799538,-0.053879769462454312,15.515007610565332,2.4928381450297909e-05,-0.89071639511615885,4534.0946833049275,4534.6900233303268,1811.3067866352637
6.6750000000001215,0.00048674867625000907,6286516.246108491,1111631.2578808072,1331.0136709612852,-101.98753531748257,455.0013384880815,199.85275547033876,-0.28935726037371629,-0.066208747283060213,0.026563507856761155,-0.65801638410060692,0.092500019763726293,0.74341827002599092,0.076075359942861728,-27678.539277817683,76710.03310183229,-142738.18490563004,160027.66060802716,22808.140110875866,54334.176225185671,48528.18196290842,802050.43609205983,2087301.2462000579,2692909.9995966535,2.8307895035765367,25900.933659917369,-0.53192953436596557,-6.3677120692578928,-0.88246100041666919,-0.22154401311189417,0.19993888048390343,0.0049946106809495615,0.0090932983775364514,-0.025394745054322713,-0.049861286050382279,200.97440874891979,0.63431697892828809,13469.820159849753,-0.2894296300027141,-0.066208118598316268,0.026572437340034998,5906.573598711786,204.67923079081973,-0.051354509808856655,15.515011994283084,2.527666505951661e-05,-0.89071707021682645,4534.0716320861347,4534.6752888864967,1811.2690009726423
6.758333333333459,0.00049282543875000932,6286507.7244769614,1111669.1717528063,1347.6672211425396,-102.53821073152085,454.93356819938128,199.83153447446327,-0.27188576112657137,-0.065638394162286243,0.027276570902417693,-0.65492436630371798,0.10125734327478958,0.7441762296035479,0.083801934032886979,-28365.498745232428,80794.843049637071,-116501.66554726433,177314.38294377728,31131.083557173337,49689.558980991365,48528.106371123322,802050.26582436101,2087300.6134671154,2692909.2250093957,2.8697935393761203,25900.84140985235,-0.53925870387560593,-6.8422275956250971,-0.74019431483518905,-0.28738172224281844,0.22160058763276252,0.0091047103253735721,0.0077859957581035196,-0.029538176866268664,-0.052451015936538288,201.01225430353423,0.63442171264395419,13477.554116491418,-0.27195807917589887,-0.065637817721459504,0.027285912292826068,5904.7875956396165,204.61686922539744,-0.04846293275736395,15.515016379201386,2.5625044051476737e-05,-0.89071774550238081,4534.0485746262357,4534.6605504533218,1811.2312050795672
6.8416666666667965,0.00049890220125000957,6286499.1553506255,1111707.0804952558,1364.3187769296444,-103.1268884456358,454.87849871710591,199.80492323228739,-0.25259799605459188,-0.064725602066231222,0.027857417277894359,-0.65184399115233027,0.10951959720818054,0.74487293058480364,0.090935066437348389,-28828.816882784286,84975.673823972626,-91780.311572378618,194805.68472843349,39249.507770636388,43153.892776015695,48528.030758450477,802050.09550955368,2087299.9805572815,2692908.4502060846,2.9088085066709448,25900.74913398633,-0.54658992240333226,-7.279169957713072,-0.57851535162141565,-0.35082808331704063,0.24352893383293148,0.013211937976495055,0.0058622538467705855,-0.033424160794117537,-0.055096897675246635,201.0501957451898,0.63452635404244606,13485.3749244138,-0.25267026093113365,-0.064725069067764276,0.027867163951601926,5902.954209523291,204.55287228063085,-0.045200891468815951,15.515020765345001,2.5973520394308669e-05,-0.89071842097663645,4534.0255107950343,4534.6458079475824,1811.193398742626
6.9250000000001339,0.00050497896375000981,6286490.5356969321,1111744.9852280749,1380.9678979995924,-103.75030049260228,454.83753449158502,199.77314148206446,-0.23147806311832875,-0.06347098407420794,0.028255672033397343,-0.64881205389948882,0.11723405951842962,0.74552504681892706,0.097424322267044686,-29098.378879793538,89256.459885481774,-68776.130564703926,212367.64214221059,47117.526206367715,34830.254123151506,48527.95512441959,802049.92514657788,2087299.3474666039,2692907.6751818876,2.9478346487840965,25900.656831742937,-0.55392323565688639,-7.6753223148243856,-0.4026046904503528,-0.41137953136131444,0.26555266955261481,0.017303775183366663,0.0033506124568165648,-0.037021615007712103,-0.057801628239523034,201.08838168453843,0.63463134897576046,13493.306819356896,-0.23155027359129302,-0.063470483747828862,0.028265815572479633,5901.07064912239,204.48715191537585,-0.041563216100247012,15.515025152741238,2.6322096256405881e-05,-0.890719096643797,4534.0024404490741,4534.6310612775787,1811.155581726659
7.0083333333334714,0.00051105572625001006,6286481.8627663823,1111782.8871698487,1397.6141641728243,-104.4049268462834,454.81163486605305,199.73645393542577,-0.20852487936576944,-0.061876720324902761,0.028423742625554357,-0.64586590273866129,0.12434686163959503,0.74615050211388922,0.1032207434343926,-29206.436661565811,93635.506095500095,-47695.08012031042,229854.74701366108,54672.669857716079,24856.597379089071,48527.879468519124,802049.7547342811,2087298.7141907872,2692906.8999315472,2.9868722302926987,25900.564502495588,-0.56125869334421719,-8.0278495064401767,-0.21794364801978042,-0.468460020520787,0.28748620660765772,0.021353728757576972,0.00029029706103471647,-0.040299044353157475,-0.060564350854902665,201.12696478463792,0.63473715846730405,13501.37418223746,-0.20859703460205253,-0.061876240038717084,0.028434272835401835,5899.1344191472745,204.41963055500636,-0.037545475690566939,15.515029541419771,2.667077399622815e-05,-0.89071977250843382,4533.9793634323241,4534.6163103435774,1811.1177537759093
7.0916666666668089,0.00051713248875001031,6286473.1341122277,1111820.7875998323,1414.257179413946,-105.08702655123437,454.80129416171002,199.69517635773332,-0.18375332065635736,-0.059947716376336307,0.028317693626464094,-0.64304285318839505,0.13080342595435471,0.74676798295805846,0.10827710907982757,-29186.844456890387,98105.145032049084,-28746.191335808457,247110.90616341113,61838.053663335319,13404.760054493468,48527.803790198661,802049.58427142317,2087298.08072521,2692906.1244494109,3.0259215358260789,25900.472145570435,-0.56859634893676703,-8.3342810065033639,-0.030187885549434537,-0.52142031521448173,0.30913104914173767,0.025321607970651822,-0.0032691601381278639,-0.043224687175721269,-0.063380456636489904,201.16610325808645,0.63484426353866652,13509.601722852656,-0.18382542025207074,-0.059947241757381003,0.028328598540591981,5897.1433330387745,204.35024137745131,-0.03314581241184595,15.515033931412539,2.7019556151634663e-05,-0.89072044857546562,4533.9562795768879,4534.6015550382572,1811.0799146151539
7.1750000000001464,0.00052320925125001055,6286464.3476076378,1111858.6878187535,1430.8965763397962,-105.79266724037093,454.80653297902245,199.64968164088367,-0.15719525004871387,-0.05769271575518739,0.027898098333388473,-0.64037952013757204,0.13654892833831853,0.7473963930176194,0.11254817662797566,-29074.128435803217,102651.3904043152,-12139.689968474351,263970.29765448783,68525.30072269743,679.64113422373703,48527.728088871016,802049.41375668114,2087297.4470649443,2692905.3487294489,3.0649828688916005,25900.379760248747,-0.57593625945723059,-8.5924892893614544,0.15497533572812705,-0.56953895298112978,0.33027701970601658,0.029154404978286006,-0.0072680743100061737,-0.04576681648462378,-0.066241379047610141,201.20596219365888,0.63495316947503655,13518.014645433232,-0.15726729405592976,-0.057692230824296552,0.02790936421034643,5895.0955230522932,204.27892849254138,-0.028366801570225444,15.51503832275362,2.7368445429493443e-05,-0.89072112485014021,4533.9331887036669,4534.5867952471353,1811.04206395081
7.2583333333334838,0.0005292860137500108,6286455.501460501,1111896.5891094066,1447.5320212279009,-106.51775267331251,454.82690205211952,199.60040570966288,-0.12890045014304716,-0.055125316877019374,0.027130885324612723,-0.63791107793888491,0.14152878519807416,0.74805425582445684,0.11599090458361602,-28902.372257373405,107253.59612657255,1915.8886690953113,280258.13679592701,74638.09775233148,-13081.5679479763,48527.652363914473,802049.24318865419,2087296.8132047728,2692904.5727652772,3.1040565508773699,25900.287345769779,-0.58327848528617732,-8.8006641489017721,0.33198545843278232,-0.61202537811115254,0.35070333626503114,0.032787767115474063,-0.011636562399000124,-0.047894195525923028,-0.069134385301877474,201.24671460894714,0.63506440920533858,13526.63878163843,-0.12897243909072453,-0.055124804199023929,0.027142496641975575,5892.9894479642271,204.20564702593239,-0.023217291844419681,15.515042715479092,2.7717444696340796e-05,-0.89072180133801337,4533.9100906230169,4534.5720308489927,1811.004201472015
7.3416666666668213,0.00053536277625001105,6286446.5942259887,1111934.4926981295,1464.1632195031912,-107.25804802017481,454.86149988456651,199.54785305434541,-0.098937468358708522,-0.052264845326971655,0.025988194532959908,-0.63567046218580359,0.14568916697707834,0.74875907429188338,0.11856466082089445,-28703.922132348634,111884.14176385124,13217.571117813015,295791.43967742176,80076.264443533102,-27610.290907425442,48527.576614674872,802049.07256586873,2087296.1791392087,2692903.7965501826,3.1431429198507161,25900.194901333351,-0.59062308993965495,-8.9572846839661189,0.49558066230213593,-0.6480259073534782,0.37017963961817918,0.036148053348376473,-0.016294359749598246,-0.049576683971011268,-0.072042376050902759,201.28854211551294,0.635178545441901,13535.500675159628,-0.09900940326670625,-0.052264286177156657,0.026000133983540469,5890.8238987402265,204.13036312202772,-0.017714178240534575,15.515047109626916,2.8066556968018027e-05,-0.8907224780449311,4533.886985135402,4534.5572617162843,1810.9663268516913
7.4250000000001588,0.0005414395387500113,6286437.6248171516,1111972.3997183666,1480.7899216611079,-108.00920281380846,454.9090051955352,199.49260162089254,-0.067394374324980966,-0.049137033040448551,0.024449250892450605,-0.63368753000976896,0.14897754236232186,0.74952665808634455,0.12023142268024919,-28507.940637455449,116508.176222617,21572.757967102887,310379.90251922526,84740.228976524057,-42607.865754887294,48527.500840467743,802048.90188678249,2087295.5448625111,2692903.0200771391,3.1822423294828117,25900.102426102338,-0.59797013986554282,-9.0610920132154824,0.64098065391953318,-0.67663333362268907,0.38846710997002531,0.039154969025473406,-0.021150596669573019,-0.050785986717811905,-0.074943712172681462,201.33163508058885,0.63529617121763871,13544.627601548798,-0.067466256710064315,-0.049136407587810009,0.024461499387911229,5888.5980026092529,204.05305388607508,-0.011884054290262991,15.51505150523681,2.841578540019239e-05,-0.8907231549770106,4533.8638720320441,4534.5424877155583,1810.9284397476079
7.5083333333334963,0.00054751630125001154,6286428.5925136637,1112010.3111775741,1497.4119295599019,-108.76677180637934,454.96772490555463,199.43530671823797,-0.034379415742532775,-0.04577445648623555,0.022501254214621135,-0.63198819891267777,0.15134325911804847,0.75037043243565293,0.12095597745034412,-28338.866692967873,121083.46184521698,26804.90162537892,323827.03870486218,88535.807946213623,-57747.53605261656,48527.425040580507,802048.73114979011,2087294.9103687047,2692902.2433388345,3.2213551479916611,25900.009919205429,-0.60531970424435455,-9.1110671533610912,0.7640759635326676,-0.6969010768281948,0.40531984336497207,0.041724769817717965,-0.02610366536678195,-0.051496532389898229,-0.077812094712352231,201.37619217671613,0.63541790848154711,13554.047507893674,-0.034451247615346209,-0.045773743993419748,0.022513790901560873,5886.3112259261015,203.97370727702003,-0.0057646797748253644,15.515055902350122,2.876513327813157e-05,-0.89072383214061923,4533.8407510955813,4534.5277087078757,1810.890539803461
7.5916666666668338,0.00055359306375001179,6286419.4969689129,1112048.2279287884,1514.029102983344,-109.52623438748273,455.03565797809904,199.37670352443806,-2.1543953428426656e-05,-0.042216687087964611,0.020140272013430018,-0.63059358731243209,0.1527381683321343,0.7513007446415888,0.12070613354745895,-28214.867981873853,125560.36947821423,28759.938006090812,335931.72938465857,91379.18753832762,-72677.462922888662,48527.349214274647,802048.56035322812,2087294.2756515981,2692901.4663276924,3.2604817568733706,25899.917379739833,-0.61267185475232688,-9.1064196875590628,0.86161805640064648,-0.70786282231611442,0.42048668032512693,0.043774013856485661,-0.031041334922890667,-0.051686462658609308,-0.080616530448586923,201.42241922987145,0.63554440447366645,13563.788859503016,-9.3327805551189782e-05,-0.042215866126859132,0.020153074306763757,5883.9633761754967,203.89232197133217,0.0005938139216685851,15.51506030100971,2.9114604006643803e-05,-0.89072450954235705,4533.817622100757,4534.5129245492535,1810.8526266500141
7.6750000000001712,0.00055966982625001204,6286410.3382154787,1112086.1506481683,1530.641366336976,-110.28301372636278,455.11057489241284,199.31760769733623,0.035529235974333891,-0.038510109669615933,0.017372108082306451,-0.62951918309523425,0.15311729863161536,0.75232418732398088,0.11945295367707544,-28146.399145760304,129882.08055450412,27313.314969750943,346490.34529124998,93201.990675170266,-87025.089428242412,48527.273360788313,802048.38949537999,2087293.6407048043,2692900.6890358953,3.2996225497049605,25899.824806774221,-0.62002666533644168,-9.0465936324752789,0.9314029389195112,-0.70855851132752268,0.433713686970574,0.045223817280940153,-0.03584129086691018,-0.051338706230594167,-0.083321420489398126,201.47052730897445,0.63567632570284882,13573.880385031971,0.035457497193906319,-0.038509158350435814,0.017385151720292261,5881.5546034731842,203.80890720915266,0.007128075540352761,15.515064701259782,2.9464201098276362e-05,-0.89072518718903249,4533.7944848151737,4534.4981350911412,1810.8146999063194
7.7583333333335087,0.00056574658875001228,6286401.1166689834,1112124.0798197801,1547.2487152970671,-111.03249734543846,455.19011183956127,199.25891353138988,0.072101752316486939,-0.034707369770712822,0.014213104548492292,-0.6287740694432401,0.15243958538440733,0.75344296014004275,0.11717102124257328,-28135.001112450973,133985.05368714087,22377.404452101775,355299.5842683707,93956.28978079783,-100403.16115159109,48527.197479338865,802048.21857448271,2087293.005521765,2692899.9114554171,3.33877793069647,25899.732199352246,-0.62738421194218219,-8.9312970271287675,0.97243915631249767,-0.69806732643684399,0.44474747969946166,0.046004530211872861,-0.040372283178569973,-0.050442102624367498,-0.08588681197255213,201.52073004547941,0.63581434949328108,13584.350717937938,0.072030055235781223,-0.034706265981151556,0.014226363673056358,5879.0854016730136,203.72348263504298,0.013761154489586647,15.51506910314575,2.9813928160905668e-05,-0.89072586508763951,4533.7713390001209,4534.4833401809501,1810.7767591810752
7.8416666666668462,0.00057182335125001253,6286391.833130084,1112162.0157287931,1563.8512231830639,-111.77006134983429,455.27187789841457,199.20158906404731,0.1095038675439388,-0.030866419495957542,0.010690819994660514,-0.62836023986046818,0.15066865688876363,0.75465429421787766,0.1138387500473719,-28172.4899839467,137799.80972216613,13909.019179295005,362160.13863481994,93619.386193575978,-112417.64294137122,48527.121569126059,802048.04758873361,2087292.3700957729,2692899.133578049,3.3779483131610584,25899.639556496048,-0.63474457222663239,-8.7605609575929186,0.98508924390778319,-0.67554791313533546,0.45333955472179827,0.046060696618923792,-0.044496058477641022,-0.048992530850780924,-0.088268852523461117,201.57324022983494,0.63595915324887498,13595.227939950351,0.1094322084133159,-0.030865141145639735,0.010704267259667104,5876.5566091708488,203.63607813728692,0.02040271550636507,15.515073506714062,3.0163788884304275e-05,-0.89072654324532974,4533.7481844114927,4534.468539662651,1810.7388040741489
7.9250000000001837,0.00057790011375001278,6286382.4887842042,1112199.9584640518,1580.4490467744099,-112.49110094136161,455.35357246481664,199.14666753868556,0.14752308119578839,-0.027049145388642327,0.0068445124689546812,-0.62827203637258411,0.14777367498046159,0.75594996556692262,0.10943874475880865,-28240.683704556708,141252.07985624589,1916.6814358786546,366881.25725894223,92198.126850393106,-122677.66768118087,48527.045629335429,802047.87653629784,2087291.7344200048,2692898.3553954395,3.4171341177085077,25899.546877210749,-0.6421078252174186,-8.5348317776295204,0.97117202061864694,-0.640285472530288,0.4592517304298952,0.045356094039439077,-0.048070224895527099,-0.046993987320019887,-0.090420482766040117,201.62826579878947,0.63611140179303127,13606.539041919696,0.14745145594362258,-0.027047670652835407,0.0068581191777340577,5873.969409058991,203.54673368357578,0.026949978068920969,15.515077912011972,3.0513787023335378e-05,-0.89072722166938167,4533.72502080086,4534.4537333774451,1810.7008341783105
8.0083333333335194,0.00058397687625001303,6286373.0851983698,1112237.9079307362,1597.0424312453513,-113.19107003353955,455.43310910214046,199.09523469397669,0.18592762923542194,-0.023319581663572005,0.0027253455359493553,-0.62849574594140523,0.14373022140027328,0.75731592496340971,0.10395821558010875,-28311.797002768155,144264.34581955275,-13532.78368254393,369286.19859867741,89732.471532233685,-130807.50666478882,48526.969659142233,802047.70541531756,2087291.0984875523,2692897.5768991327,3.4563357701716044,25899.454160488993,-0.64947405092027599,-8.2550970524868283,0.93401193826307072,-0.5917445468073943,0.46226273178253818,0.043878572207674875,-0.050952148214505867,-0.044459546668717556,-0.092292393143758616,201.68600539837433,0.63627173336422094,13618.309327077448,0.1858560335331296,-0.023317889219024203,0.0027390818077158408,5871.3253282200785,203.45549914481145,0.033289502688580323,15.515082319087343,3.0863926380566305e-05,-0.89072790036716609,4533.7018479166554,4534.4389211645303,1810.6628490811891
8.091666666666848,0.00059005363875001327,6286363.6243142644,1112275.863873437,1613.6317138523432,-113.86553264965787,455.50874081452076,199.04841148790018,0.22446817304063696,-0.019741738498932692,-0.0016037700638139635,-0.62900938973633458,0.13852121385780444,0.75873207188726066,0.097389445139344097,-28349.596591844507,146757.77926110919,-32308.825430892906,369218.48428916559,86297.968235822438,-136460.36451500127,48526.89365771586,802047.53422392171,2087290.4622914586,2692896.7980806129,3.4955536994087901,25899.361405316566,-0.65684332991596872,-7.9230412612844487,0.8784214787219814,-0.52962532957818043,0.46217584155579022,0.041644331757531704,-0.053003903054254342,-0.041412130156738065,-0.09383425708978492,201.74664377423974,0.63644074505488335,13630.561791494147,0.22439660237550735,-0.019739807743956853,-0.0015899351010221767,5868.626234505442,203.36243408642164,0.039299918235329585,15.515086727988376,3.121421078553695e-05,-0.89072857934610583,4533.6786655055175,4534.4241028619563,1810.6248483674781
8.1750000000001766,0.00059613040125001352,6286354.1084364308,1112313.825909524,1630.2173259848091,-114.51022823199264,455.57918061641595,199.00733209035127,0.26288016028994843,-0.016377107612305604,-0.0060687849869591869,-0.62978273751391389,0.13213782738861102,0.76017219862094376,0.089730298931291627,-28311.348165709867,148654.55990093303,-54213.456876875782,366548.76177716535,82006.752480371812,-139333.5817407037,48526.817624224699,802047.36296023731,2087289.8258247613,2692896.0189313572,3.5347883346918461,25899.268610678278,-0.66421574286385465,-7.5412217881939689,0.81060384926186702,-0.45392024325360275,0.45882741623135437,0.038701217668763797,-0.054098203252979975,-0.037885000674918935,-0.094996233125452106,201.81034729426696,0.63661897864703132,13643.316524182794,0.26280861004371614,-0.016374918862981168,-0.0060548829814269529,5865.8743309192396,203.26760749955187,0.044855632451631912,15.51509113876333,3.1564644072479823e-05,-0.89072925861363283,4533.6554733137846,4534.4092783075821,1810.5868316213703
8.2583333333335052,0.00060220716375001377,6286344.5402144128,1112351.7935721204,1646.7997931887298,-115.12115195250929,455.64371032882161,198.97311729484707,0.30088691786326432,-0.013281944509786505,-0.010585645205803407,-0.63077757445845051,0.12458038792633137,0.76160412725320004,0.080984763105971511,-28150.506550174967,149880.51991702869,-78979.810165091505,361181.97555512591,77006.674148215316,-139184.58900900517,48526.7415578414,802047.19162240042,2087289.1890805331,2692895.2394428859,3.5740401030500948,25899.175775564319,-0.67159136999462976,-7.113249744063431,0.737966471382554,-0.36496646276996614,0.45209592109832031,0.035130562850791754,-0.054125114760162032,-0.033921903354498226,-0.09573070435098327,201.87725993766875,0.63680690788825789,13656.590173775263,0.30081538339391534,-0.013279479164552604,-0.010571708352315056,5863.0721455161902,203.17109743879257,0.049831489802416522,15.515095551460222,3.1915230055828156e-05,-0.89072993817714163,4533.6322710890963,4534.3944473400952,1810.5487984291976
8.3416666666668338,0.00060828392625001402,6286334.9226175901,1112389.7663613916,1663.3797328011781,-115.69464958604709,455.70226995525212,198.94684389789211,0.33820350252171338,-0.010504465676652558,-0.015062005028593048,-0.63194824002287953,0.11585919680611165,0.76299005679654097,0.071163485559934223,-27820.007079971347,150368.02724459156,-106273.47187127083,353064.43936627253,71478.189809093266,-135846.72075766342,48526.665457748473,802047.02020856994,2087288.5520519339,2692894.4596068249,3.6133094263718029,25899.082898977318,-0.67897029058198377,-6.6439545222267729,0.66884133863462847,-0.26348920623250055,0.44191099108639392,0.031047122730272034,-0.052999220624865118,-0.029576778377927541,-0.095994196437267101,201.94750008057372,0.63700492823686394,13670.395528625684,0.33813197924568267,-0.010501706342725035,-0.015048065832797152,5860.2225155651986,203.07299052536493,0.054108239017316574,15.51509996612649,3.22659725050048e-05,-0.89073061804393783,4533.6090585820957,4534.3796098001103,1810.5107483822114
8.4250000000001624,0.00061436068875001426,6286325.2589015663,1112427.7438022003,1679.9578488982745,-116.22752455916024,455.75551997807139,198.92951104853563,0.37454128873481524,-0.0080821352120047443,-0.019399540390228766,-0.63324244739045887,0.10599523816010083,0.76428712982665603,0.060284288928856629,-27275.921251475476,150058.98543783376,-135697.00977304933,342190.30882979615,65628.754737879412,-129243.79096663687,48526.58932314397,802046.84871693945,2087287.9147322534,2692893.6794149578,3.6525967184563441,25898.989979939084,-0.68635258237562491,-6.1395067926931022,0.61211625751820986,-0.15063016784816749,0.42826188703984708,0.026596708218616101,-0.050666774586317034,-0.024912989523906581,-0.095749386975381975,202.02115836378562,0.63721334996431089,13684.741251566489,0.37446977220656702,-0.0080790657890186801,-0.019385631438177016,5857.3285644891239,202.97338127421185,0.057578554877856687,15.515104382808675,3.2616875117524515e-05,-0.89073129822118913,4533.585835548166,4534.3647655312625,1810.4726810794357
8.508333333333491,0.00062043745125001451,6286315.5525652915,1112465.7255055842,1696.5349243621363,-116.71715259121656,455.80486964933169,198.92200503721253,0.40961321625862074,-0.0060392434477544088,-0.023496840480574366,-0.63460237830245836,0.095020716939300864,0.76544821811776964,0.048372618138117607,-26481.158314966004,148907.79552559732,-166797.92891206994,328606.88978724397,59684.616371936259,-119402.19500799906,48526.513153247099,802046.67714575026,2087287.2771149611,2692892.8988592895,3.6919023821161807,25898.897017497518,-0.69373832106451072,-5.6074730759500335,0.57679082495453204,-0.027955645575302297,0.41120461189746721,0.021951262969406086,-0.047112265802712834,-0.020002038967799236,-0.094967093104310965,202.09829684268843,0.63743239523453077,13699.631798865037,0.40954170224463865,-0.006035849166771883,-0.023482994225553343,5854.3936703453064,202.87237120855988,0.060153238837558749,15.51510880155209,3.2967941493643645e-05,-0.89073197871587384,4533.562601749145,4534.3499143813215,1810.4345961304737
8.5916666666668196,0.00062651421375001476,6286305.8072985345,1112503.7112309805,1713.1118100128679,-117.16159342468872,455.85246621542439,198.92504374035121,0.44313967579649588,-0.004384505648191035,-0.027252814215774569,-0.63596603174886801,0.082979374656652408,0.7664229151018096,0.035461881648232781,-25586.428940313861,146900.7477862119,-199077.362442527,312442.95846299286,54146.851100452732,-106465.22497580173,48526.436947303548,802046.50549330364,2087286.6391937481,2692892.1179320961,3.7312268064482899,25898.804010733089,-0.70112757975865225,-5.0561228883224736,0.57152765402388062,0.098943095891142349,0.39089786079153066,0.017429111926202584,-0.042366358639730081,-0.014921775199430592,-0.093628104533727843,202.17892848780116,0.63766213313462161,13715.064685732557,0.44306816034098206,-0.0043807730675721156,-0.027239062794688084,5851.4214249646075,202.77006773450296,0.06176713068630018,15.515113222400517,3.331917511139647e-05,-0.89073265953473424,4533.5393569549533,4534.3350562032165,1810.3964931581775
8.6750000000001481,0.000632590976250015,6286296.0269267363,1112541.7009462265,1729.6893739258553,-117.55950835574862,455.90115361049101,198.93810876388088,0.47486239645822304,-0.003076154981372611,-0.030571309309779374,-0.63726917936708471,0.069926434885627678,0.76715839507991967,0.021593600704618656,-25184.988574851122,144078.36699415214,-232011.03857335879,293926.60846610216,50077.752746261198,-90699.154533622757,48526.360704633815,802046.33375807037,2087286.0009629698,2692891.3366264552,3.7705703405703441,25898.710958823282,-0.70852042407234173,-4.4932227696679288,0.60416150562345672,0.2153872331120297,0.36762635261759152,0.013627869554288468,-0.036518184441682235,-0.0097531238037573947,-0.091724692967079038,202.26196610746311,0.63789916443261852,13730.887817482955,0.47479087592452862,-0.0030720719439227898,-0.030557684472805088,5848.4155900757614,202.66658299303865,0.06241483374439212,15.515117645393392,3.3670579104337354e-05,-0.89073334068384369,4533.516100958318,4534.3201908644587,1810.3583718227842
8.7583333333334767,0.00063866773875001525,6286286.2153509567,1112579.6948812644,1746.2684353449984,-117.91051655518123,455.95435298427566,198.96102739220507,0.50453704902428032,-0.0020740635799559154,-0.033364399274974331,-0.63844783881413458,0.055928174762694023,0.76760010438823256,0.0068173399833875723,-24483.366570306098,140369.08754364107,-265100.83824745292,273153.14006548631,46429.465971143552,-72432.527597405613,48526.284424713725,802046.16193886986,2087285.3624182704,2692890.5549370279,3.8099332537891613,25898.617861133716,-0.71591690462243462,-3.9322748225405246,0.68078089272671949,0.33499452174246463,0.34151045709395961,0.010139953682507514,-0.029681667268601657,-0.0045756091797923898,-0.08926154639114571,202.3468564326048,0.6381417752723455,13747.021027746456,0.50446552009813284,-0.0020696191479544291,-0.033350932506033749,5845.3800475264461,202.56203257701137,0.062113008870038018,15.515122070561146,3.402215588986383e-05,-0.89073402216788855,4533.4928335993563,4534.3053182628491,1810.3202318622136
8.8416666666668053,0.0006447445012500155,6286276.3764605075,1112617.6935707119,1762.8498234432525,-118.21524384677204,456.01593509803899,198.99395533861153,0.53193888482567375,-0.0013455210263611072,-0.03555566082422211,-0.63943895189946165,0.041061644642763878,0.76769405583677974,-0.0088093567202724345,-23615.582859506136,135808.04499732231,-297797.5404378504,250407.8645984075,43569.113522116866,-52128.130787084723,48526.208107075283,802045.99003464892,2087284.7235557425,2692889.7728590276,3.8493157873756454,25898.524717094755,-0.72331706674317686,-3.3848220154882656,0.80604893689965862,0.45242468199186248,0.31290965550439287,0.007235934191670324,-0.022024593393872409,0.00053243761543067677,-0.086256231948671699,202.43358404017346,0.63838994857957798,13763.456986013894,0.53186734454618945,-0.0013407054148583161,-0.035542383308849054,5842.3187207020464,202.45653330614462,0.060883108300084969,15.515126497930948,3.4373907626850743e-05,-0.8907347039910527,4533.4695547353149,4534.2904383071409,1810.2820730424628
8.9250000000001339,0.00065082126375001575,6286266.5140483649,1112655.6978861275,1779.4343318179917,-118.47542041412318,456.09008987137423,199.03552913472606,0.5568818261678854,-0.00080326912468335187,-0.037084967467948642,-0.64018233547711867,0.02541372131733452,0.76738816776022933,-0.025221421321266549,-23536.467186930091,130513.93379646297,-329331.17324064288,226100.50469981894,42991.280285699839,-30353.078057363993,48526.131751331821,802045.81804453768,2087284.0843721952,2692888.9903885359,3.8887181391730086,25898.431526241824,-0.73072094762635431,-2.8645365627052715,0.98258736794891322,0.54492851407498122,0.2823415311572704,0.0057197463187417157,-0.013772707369891024,0.0054990997563817996,-0.08273906371537107,202.52088328435786,0.63863972450110984,13780.018259121547,0.55681027194244803,-0.00079807363337252039,-0.037071910140143306,5839.235496842578,202.35020107819264,0.058852948627112649,15.515130927525249,3.4725836098850314e-05,-0.89073538615679404,4533.4462642482558,4534.2755509219469,1810.2438951702086
9.0083333333334625,0.00065689802625001599,6286256.6317247078,1112693.7090530824,1796.0226224224605,-118.69359771549478,456.18107878801078,199.08468201410363,0.57920945872231799,-0.00036520313999455244,-0.037911095831899014,-0.64062348323174345,0.0090796888023643562,0.76663279231304438,-0.042347062868457137,-23165.245180711707,124448.36798090045,-359653.54618552956,200416.63592742218,42903.37687267967,-7671.0338235651525,48526.055357284764,802045.64596808958,2087283.4448660093,2692888.2075235611,3.9281404100977753,25898.338288339659,-0.73812856624807222,-2.3785907928073926,1.2099733009327822,0.63394190783521709,0.25004469471540147,0.0048079753183093909,-0.005151800067186435,0.010261459830386666,-0.078752088527075464,202.60798083222258,0.63888869529916936,13796.594089834209,0.57913788829491863,-0.0003596201058546007,-0.037898289670530841,5836.1341448699714,202.24314857289164,0.056097559353629499,15.515135359355593,3.5077942222933176e-05,-0.8907360686668897,4533.4229620776014,4534.2606560685444,1810.205698146154
9.0916666666667911,0.00066297478875001624,6286246.7328588869,1112731.7286497822,1812.6153123160952,-118.87304319957428,456.29308866919365,199.1410340326253,0.59879511406054275,2.1283894033422597e-05,-0.038012664669406136,-0.64071365924714752,-0.0078380240299247561,0.76538327063226264,-0.060108412636645327,-22525.501392192735,117689.78343282625,-388400.00510204711,173724.57300747072,43291.626757822458,15277.54573424407,48525.978924793206,802045.47380498773,2087282.8050360105,2692887.4242626633,3.9675826727962211,25898.245003217016,-0.74553993625851311,-1.936564122919648,1.4866429683517108,0.71734904350644568,0.2164864511654721,0.0045523583038987884,0.0035857280044826749,0.014763528560699539,-0.074347708007378957,202.69496274151686,0.63913716203972659,13813.190769169931,0.59872352552308572,2.7261101331855777e-05,-0.038000140755680638,5833.0182580321498,202.13548381139998,0.052713787368998323,15.515139793430169,3.5430226650162137e-05,-0.89073675152260223,4533.3996481803733,4534.2457537194632,1810.1674818998445
9.1750000000001197,0.00066905155125001649,6286236.8205158841,1112769.758595617,1829.2129796407226,-119.01777823451756,456.43009420315093,199.20403522864268,0.61555158382251274,0.00041142761816553039,-0.03738970275724366,-0.64041078053877087,-0.025231582467878561,0.76360153886785576,-0.078422504770834955,-21648.938959724532,110331.67831357851,-415263.92035427038,146400.83851485196,44091.831521372442,37839.879467322768,48525.902453737828,802045.30155496323,2087282.1648812026,2692886.6406046236,4.0070449888401969,25898.151670728796,-0.75295506921988009,-1.5468936780598443,1.8091007529025713,0.79320054657042194,0.18214467344472318,0.0049590758867718446,0.012179610354269269,0.018958389560145467,-0.069586865672057893,202.78194108672253,0.63938550582441189,13829.81851505444,0.61547997563511192,0.00041780456805184241,-0.03737749226484384,5829.8911893607292,202.02730842940949,0.04881855773430499,15.515144229755929,3.5782689932310763e-05,-0.89073743472500033,4533.3763225201792,4534.2308438514419,1810.1292463716295
9.2583333333334483,0.00067512831375001674,6286226.8973979428,1112807.8011270189,1845.8161502079972,-119.13246566152104,456.59570628370471,199.27298316156137,0.62943132855860739,0.00085920010476419836,-0.036063851077289613,-0.63968044065955687,-0.042989737102946679,0.76125718322657254,-0.097202455356638989,-20572.660210786085,102479.16249952067,-440006.01245632872,118816.25275885238,45190.570530324971,59378.505925206649,48525.825944015727,802045.1292177845,2087281.5244007257,2692885.856548388,4.0465274113802998,25898.058290749712,-0.76037397511459448,-1.216476774532909,2.1721644618066169,0.85979983611547872,0.14748981175551792,0.0059868826072825478,0.020373887741866704,0.022809533933246973,-0.064536791030225998,202.86905097968574,0.63963417786501109,13846.491175746061,0.62935969956578164,0.00086598124280158715,-0.036051985257848342,5826.7559899935095,201.91871598069199,0.044541534323618348,15.51514866833886,3.6135332545221319e-05,-0.89073811827500726,4533.3529850656296,4534.2159264444153,1810.0909915100533
9.3416666666667769,0.00068120507625001698,6286216.9657968264,1112845.8587616696,1862.4252857541121,-119.22226861512009,456.7930454443204,199.34704690155255,0.6404251873677318,0.0014134037741131182,-0.034077544513256494,-0.63849661462479501,-0.060999903791239013,0.75832824845516389,-0.11635872311545442,-19336.373164059245,94244.900401873805,-462459.35778936389,91322.186125895154,46430.589338835416,79298.317573429915,48525.749395535015,802044.95679324435,2087280.8835938112,2692885.0720930146,4.0860299879528164,25897.964863167621,-0.76779666286884685,-0.95038408267165786,2.5693160814526612,0.91576928468612306,0.11296714365246657,0.0075490288156392117,0.027929067456713814,0.026291544946991187,-0.059268459224029423,202.95644652824549,0.63988368628110959,13863.225774125021,0.64035353681184415,0.0014205923227957927,-0.03406605466007407,5823.6153559266777,201.80979044112348,0.040017077065332272,15.515153109184311,3.64881549141259e-05,-0.89073880217344659,4533.3296357886938,4534.2010014804655,1810.0527172691673
9.4250000000001055,0.00068728183875001723,6286207.027558702,1112883.9342534647,1879.0407743958585,-119.29269089838786,457.02464754438864,199.42529552968605,0.64855965738015053,0.0021140637362686279,-0.031492209935287278,-0.63684202852257754,-0.07915024360781979,0.75480177759911748,-0.13580039093199919,-17979.81989696344,85744.721443590344,-482529.85450017825,64237.942411321375,47619.976212694732,97071.122015339526,48525.672808209449,802044.78428114858,2087280.2424597344,2692884.2872376181,4.1255527632667324,25897.871387876949,-0.77522314087540456,-0.75170643095880385,2.9931172885995911,0.96009179200483064,0.078980562117722308,0.0095188017228875349,0.034633323019198844,0.029390106415699297,-0.053853932427949586,203.04429604637534,0.64013458063034356,13880.041931188765,0.64848798491307991,0.0021216615622192884,-0.031481127308245316,5820.4715855937038,201.70060497851463,0.035376184837135859,15.515157552297314,3.6841157438221634e-05,-0.89073948642109257,4533.3062746630703,4534.1860689427795,1810.014423605857
9.5083333333334341,0.00069335860125001748,6286197.0840626732,1112922.0305411001,1895.6629235759874,-119.34941044965862,457.2924052059721,199.50672901962551,0.65389291650020898,0.0029894019353194474,-0.02838559365473204,-0.63470820128647987,-0.097331654294738029,0.75067407809147191,-0.15543640749016899,-16540.653725352691,77093.204389413339,-500192.32335688383,37840.157882817708,48544.334418799823,112256.08646522944,48525.596181953326,802044.61168130394,2087279.6009977744,2692883.5019813166,4.1650957817808285,25897.777864772557,-0.78265341748022133,-0.62154188179122982,3.4356438471890201,0.99212640249263639,0.04587907142725612,0.01173813624256558,0.040311880373977871,0.032101365945842883,-0.048363755722222873,203.13277697570024,0.64038743563433198,13896.961228719059,0.6538212221936428,0.0029974093896891073,-0.028374949351192929,5817.3265497754282,201.59122103428825,0.030739098044524481,15.515161997682858,3.7194340514223545e-05,-0.89074017101871417,4533.2829016626147,4534.171128814648,1809.976110477269
9.5916666666667627,0.00069943536375001772,6286187.1362130949,1112960.1506932678,1912.2919556072629,-119.39811729218403,457.59754469353646,199.59030938679513,0.6565098512623444,0.0040536188074942131,-0.024848395884987454,-0.63209518824716648,-0.11543959202190217,0.7459507258481054,-0.17517673417232293,-15052.898905647862,68399.538337267353,-515482.77871404245,12354.918509885552,48980.867997293994,124514.80883158906,48525.519516676643,802044.43899350788,2087278.9592071737,2692882.7163231838,4.2046590902724805,25897.684293743911,-0.79008750146613538,-0.55911316971068659,3.8888945775669579,1.0115996471317021,0.013946897693837236,0.014028447944644839,0.044833925649684782,0.034430736345133932,-0.042864569215228278,203.22207100433343,0.64064283563791125,13914.006576350957,0.65643813561632736,0.0040620345501082827,-0.024838220644944089,5814.1816744783318,201.48168773731501,0.026209138737383782,15.515166445346177,3.7547704558729052e-05,-0.89074085596711827,4533.2595167598729,4534.1561810785197,1809.9377778383987
9.6750000000000913,0.00070551212625001797,6286177.1844448382,1112998.2978532845,1928.9280057574465,-119.44436591872133,457.94063451370289,199.6749902433063,0.65651641428161966,0.005305629849740116,-0.020980435983029486,-0.62901107395311351,-0.13337565563335349,0.74064633339130015,-0.19493335313062046,-13546.03017585658,59763.925849929517,-528487.69117583719,-12046.957025536114,48713.146502750213,133620.25937963714,48525.442812280657,802044.26621753746,2087278.3170870985,2692881.9302622001,4.2442427400478229,25897.59067466938,-0.79752540246241266,-0.5619914965155608,4.3451381741823045,1.0185768680155438,-0.016602237099998893,0.016202659716489924,0.048116625757815237,0.036391259663207172,-0.037417072024627913,203.31235982862697,0.64090136120373287,13931.201644582048,0.65644467823019947,0.0053144506704370471,-0.02097075992152711,5811.0379364755518,201.37204164792468,0.021868210971470996,15.515170895293037,3.790125002845439e-05,-0.89074154126719129,4533.2361199247271,4534.1412257151433,1809.899425639878
